onset	duration	trial_type	RT	ExcludeBlock	SearchEvidence	SearchValue	SearchCosts	OfferValue	Choice_isForage	ExcludeBlock	ExpValueLeft	ExpValueRight	Choice_isLeft
6.005357439	2.7	forage	2.809	0	12.65751186	36.66666667	2	14.52275539	1	n/a	n/a	n/a	n/a
13.17493545	2.7	forage	0.899	0	-15.69603524	26	1	35.33627584	0	n/a	n/a	n/a	n/a
20.93181983	2.7	engage	2.959	n/a	n/a	n/a	n/a	n/a	n/a	0	21.78	36.915	1
30.99043407	2.7	forage	1.227	0	-5.735195245	38.5	1	34.98429908	0	n/a	n/a	n/a	n/a
36.54883383	2.7	engage	0.638	n/a	n/a	n/a	n/a	n/a	n/a	0	44.525	13.33	1
47.65072478	2.7	forage	0.739	0	20.32640763	46.16666667	2	8.692467683	1	n/a	n/a	n/a	n/a
54.91261085	2.7	forage	2.703	0	-2.955005784	36.66666667	0.5	29.6253609	0	n/a	n/a	n/a	n/a
60.47939513	2.7	engage	0.721	n/a	n/a	n/a	n/a	n/a	n/a	0	33.63	17.03	1
69.18358558	2.7	forage	2.194	0	-5.317378569	44.33333333	1	32.13512147	0	n/a	n/a	n/a	n/a
75.92936572	2.7	engage	1.627	n/a	n/a	n/a	n/a	n/a	n/a	0	21.535	9.435	1
86.21636714	2.7	forage	0.928	0	25.05064048	50.83333333	0.5	5.609579498	0	n/a	n/a	n/a	n/a
93.1633277	2.7	engage	0.872	n/a	n/a	n/a	n/a	n/a	n/a	0	5.13	4.125	1
104.9506897	2.7	forage	3.475	0	11.61730983	50.83333333	2	22	1	n/a	n/a	n/a	n/a
112.1853524	2.7	forage	1.361	0	-11.1590641	36.16666667	1	37.49798803	0	n/a	n/a	n/a	n/a
123.1428177	2.7	engage	0.939	n/a	n/a	n/a	n/a	n/a	n/a	0	33.99	53.55	0
135.4298966	2.7	forage	2.442	0	-2.391809768	43.66666667	1	31.63234495	0	n/a	n/a	n/a	n/a
141.9778148	2.7	engage	1.1	n/a	n/a	n/a	n/a	n/a	n/a	0	44.175	35.38	1
150.0617333	2.7	forage	2.04	0	-11.65063276	29.16666667	2	31.68836578	0	n/a	n/a	n/a	n/a
156.0117393	2.7	engage	1.06	n/a	n/a	n/a	n/a	n/a	n/a	0	29.37	35.65	1
164.4962498	2.7	forage	4.767	0	8.923197861	37	0.5	18.7	1	n/a	n/a	n/a	n/a
173.8256329	2.7	forage	1.479	0	14.49642976	38.16666667	0.5	13.64194206	1	n/a	n/a	n/a	n/a
180.8954606	2.7	forage	1.546	0	-0.934147008	29.5	2	25.24389618	0	n/a	n/a	n/a	n/a
186.6418431	2.7	engage	0.66	n/a	n/a	n/a	n/a	n/a	n/a	0	35	18.36	1
198.7236793	2.7	forage	5.879	0	5.084012877	41.33333333	1	23.1	0	n/a	n/a	n/a	n/a
208.6536069	2.7	engage	0.595	n/a	n/a	n/a	n/a	n/a	n/a	0	2.07	33.39	0
218.7415953	2.7	forage	1.161	0	-5.347717419	31.5	2	30.51516523	0	n/a	n/a	n/a	n/a
227.2871929	2.7	engage	0.843	n/a	n/a	n/a	n/a	n/a	n/a	0	43.16	33.35	1
236.9754594	2.7	forage	1.496	0	-4.758594135	37.83333333	2	34.0960163	0	n/a	n/a	n/a	n/a
243.7181277	2.7	engage	1.513	n/a	n/a	n/a	n/a	n/a	n/a	0	23.56	7.91	1
256.3087587	2.7	forage	1.236	0	-11.37000486	28.83333333	2	33.38965595	0	n/a	n/a	n/a	n/a
263.0835948	2.7	engage	0.821	n/a	n/a	n/a	n/a	n/a	n/a	0	17.875	41.87	0
271.7817547	2.7	forage	1.036	0	17.21759217	37.66666667	1	10.61781349	1	n/a	n/a	n/a	n/a
278.2524883	2.7	forage	0.844	0	-13.37200191	27.33333333	2	34.31810774	0	n/a	n/a	n/a	n/a
284.0004981	2.7	engage	1.146	n/a	n/a	n/a	n/a	n/a	n/a	0	26.07	26.55	0
292.8920382	2.7	forage	1.912	0	11.20909461	30.16666667	2	11.84437906	1	n/a	n/a	n/a	n/a
300.1613274	2.7	forage	1.806	0	6.452143755	31.83333333	2	16.5	0	n/a	n/a	n/a	n/a
305.9143617	2.7	engage	0.952	n/a	n/a	n/a	n/a	n/a	n/a	0	12.45	1.755	1
318.0023908	2.7	forage	1.005	0	31.21047449	59.66666667	0.5	2.056254716	1	n/a	n/a	n/a	n/a
323.0616576	2.7	forage	1.049	0	-7.174793018	38.66666667	1	36.40064383	0	n/a	n/a	n/a	n/a
329.6128482	2.7	engage	1.373	n/a	n/a	n/a	n/a	n/a	n/a	0	39.78	28.16	1
338.5011687	2.7	forage	1.274	0	8.751496571	23.83333333	2	11.219159	1	n/a	n/a	n/a	n/a
343.9575497	2.7	forage	1.48	0	-3.435822142	20.83333333	1	20.9961345	0	n/a	n/a	n/a	n/a
351.7114668	2.7	engage	1.76	n/a	n/a	n/a	n/a	n/a	n/a	0	5.785	11.31	0
363.5973801	2.7	forage	0.898	0	28.24534899	57.5	1	4.253654243	1	n/a	n/a	n/a	n/a
369.665586	2.7	forage	0.965	0	4.860025485	43.16666667	1	27.32397012	0	n/a	n/a	n/a	n/a
375.4100092	2.7	engage	0.776	n/a	n/a	n/a	n/a	n/a	n/a	0	13.25	34.32	0
388.5012156	2.7	forage	1.867	0	24.69972419	48.5	0.5	5.430478849	1	n/a	n/a	n/a	n/a
394.579302	2.7	forage	4.773	0	6.798823667	38.16666667	2	22.72287611	0	n/a	n/a	n/a	n/a
402.4084296	2.7	engage	0.813	n/a	n/a	n/a	n/a	n/a	n/a	0	8.85	19.125	0
412.3111607	2.7	forage	0.797	0	21.07808259	52.33333333	0.5	9.690523616	1	n/a	n/a	n/a	n/a
420.5805846	2.7	forage	2.869	0	-4.077766377	40	0.5	32.71682511	0	n/a	n/a	n/a	n/a
427.7068024	2.7	engage	0.606	n/a	n/a	n/a	n/a	n/a	n/a	0	10.88	50.88	0
439.3929186	2.7	forage	3.877	0	4.28655299	31.5	1	19.29738947	0	n/a	n/a	n/a	n/a
450.3220944	2.7	engage	1.775	n/a	n/a	n/a	n/a	n/a	n/a	0	11.88	14.45	0
460.6137898	2.7	forage	0.86	0	26.27350083	53.16666667	0.5	4.587704341	1	n/a	n/a	n/a	n/a
467.0808179	2.7	forage	1.18	0	-6.704745569	37.66666667	1	34.42267995	0	n/a	n/a	n/a	n/a
475.0372986	2.7	engage	1.048	n/a	n/a	n/a	n/a	n/a	n/a	0	35.465	31.62	1
483.1402929	2.7	forage	9.527	0	0.32458327	33.5	2	24.44023942	0	n/a	n/a	n/a	n/a
497.9192171	2.7	engage	0.783	n/a	n/a	n/a	n/a	n/a	n/a	0	39.6	16.65	1
508.2249802	2.7	forage	1.856	0	-17.77646882	22.66666667	2	36.85	0	n/a	n/a	n/a	n/a
515.1681464	2.7	engage	0.576	n/a	n/a	n/a	n/a	n/a	n/a	0	2.07	56.95	0
527.0590261	2.7	forage	0.877	0	27.52737136	50.5	1	6.30313113	1	n/a	n/a	n/a	n/a
537.0270422	2.7	forage	2.601	0	1.328900625	42.66666667	2	30.8	0	n/a	n/a	n/a	n/a
542.7830654	2.7	engage	1.3	n/a	n/a	n/a	n/a	n/a	n/a	0	5.68	22.96	0
551.8695609	2.7	forage	1.058	0	-3.053818218	40.66666667	2	33.55	0	n/a	n/a	n/a	n/a
561.819066	2.7	engage	1.196	n/a	n/a	n/a	n/a	n/a	n/a	0	28.365	7.93	1
570.7065492	2.7	forage	3.4	0	14.39272253	41.5	0.5	12.62305468	1	n/a	n/a	n/a	n/a
579.8851395	2.7	forage	1.46	0	-12.97240514	30.33333333	1	33.32218198	0	n/a	n/a	n/a	n/a
585.6323021	2.7	engage	1.308	n/a	n/a	n/a	n/a	n/a	n/a	0	28.38	32.465	0
594.9167914	2.7	forage	2.384	0	-13.31055329	20.5	0.5	28.90190383	0	n/a	n/a	n/a	n/a
602.4794934	2.7	engage	1.241	n/a	n/a	n/a	n/a	n/a	n/a	0	10.05	16.43	0
613.9657857	2.7	forage	0.919	0	24.62503714	53.33333333	2	5.814020925	1	n/a	n/a	n/a	n/a
622.430331	2.7	forage	1.243	0	-1.368282112	40.16666667	0.5	30.28610231	0	n/a	n/a	n/a	n/a
628.3778894	2.7	engage	1.638	n/a	n/a	n/a	n/a	n/a	n/a	0	34.8	25.6	1
637.2686383	2.7	forage	2.316	0	-14.13560217	34.33333333	1	38.5	0	n/a	n/a	n/a	n/a
646.2267842	2.7	engage	0.622	n/a	n/a	n/a	n/a	n/a	n/a	0	1.02	44.1	0
656.7141463	2.7	forage	3.461	0	2.893177238	33	0.5	23.3387732	1	n/a	n/a	n/a	n/a
663.9321739	2.7	forage	2.93	0	-9.175842094	31.66666667	0.5	33	0	n/a	n/a	n/a	n/a
669.9086529	2.7	engage	0.908	n/a	n/a	n/a	n/a	n/a	n/a	0	28.8	2.56	1
678.7991134	2.7	forage	1.339	0	-10.40652784	29.66666667	2	29.80382526	0	n/a	n/a	n/a	n/a
685.5576916	2.7	engage	0.708	n/a	n/a	n/a	n/a	n/a	n/a	0	23.78	51.33	0
695.8441933	2.7	forage	1.067	0	-11.09999832	35.5	1	33.11464212	0	n/a	n/a	n/a	n/a
701.3900797	2.7	engage	0.94	n/a	n/a	n/a	n/a	n/a	n/a	0	18.09	17.92	0
710.2780375	2.7	forage	5.871	0	5.132977382	27.33333333	1	16.24177858	0	n/a	n/a	n/a	n/a
724.0052949	2.7	engage	0.87	n/a	n/a	n/a	n/a	n/a	n/a	0	13.12	16.92	0
734.8110085	2.7	forage	1.676	0	-7.938465201	39.16666667	0.5	36.3	0	n/a	n/a	n/a	n/a
741.55842	2.7	engage	1.095	n/a	n/a	n/a	n/a	n/a	n/a	0	41.25	8.05	1
753.036968	2.7	forage	2.413	0	13.24094361	41	0.5	17.04800815	1	n/a	n/a	n/a	n/a
760.2964816	2.7	forage	1.115	0	-7.364610935	28.83333333	0.5	31.3665711	0	n/a	n/a	n/a	n/a
768.0526544	2.7	engage	0.916	n/a	n/a	n/a	n/a	n/a	n/a	0	12.81	31.75	0
779.1420819	2.7	forage	0.865	0	23.97793806	45	0.5	6.574714552	1	n/a	n/a	n/a	n/a
784.207452	2.7	forage	1.279	0	-5.043292423	30.83333333	1	29.88159046	0	n/a	n/a	n/a	n/a
789.9512553	2.7	engage	1.918	n/a	n/a	n/a	n/a	n/a	n/a	0	12.96	20.01	0
804.1766595	2.7	forage	0.865	0	31.88156984	51.5	2	2.056254716	1	n/a	n/a	n/a	n/a
811.4567764	2.7	forage	6.329	0	-2.834756971	40	0.5	34.1	0	n/a	n/a	n/a	n/a
821.6326609	2.7	engage	1.221	n/a	n/a	n/a	n/a	n/a	n/a	0	22.94	11.115	1
830.1361117	2.7	forage	1.133	0	-5.233232064	37.66666667	0.5	31.63234495	0	n/a	n/a	n/a	n/a
835.6984907	2.7	engage	0.704	n/a	n/a	n/a	n/a	n/a	n/a	0	47.025	16.82	1
845.8028647	2.7	forage	1.14	0	17.70286069	49.16666667	2	13.19311151	1	n/a	n/a	n/a	n/a
852.2643404	2.7	forage	1.273	0	-8.740757172	39.33333333	2	36.07774257	0	n/a	n/a	n/a	n/a
859.0137506	2.7	engage	1.092	n/a	n/a	n/a	n/a	n/a	n/a	0	17.16	42.16	0
868.3040389	2.7	forage	3.216	0	1.243321094	41.5	2	26.39181128	1	n/a	n/a	n/a	n/a
874.0830371	2.7	forage	0.847	0	-7.949162182	32.83333333	0.5	31.3665711	0	n/a	n/a	n/a	n/a
881.6289521	2.7	engage	0.89	n/a	n/a	n/a	n/a	n/a	n/a	0	31.72	36.75	0
892.9180214	2.7	forage	2.026	0	18.97673826	38	0.5	7.045427795	1	n/a	n/a	n/a	n/a
899.1771013	2.7	forage	2.129	0	5.832554365	32.83333333	0.5	19.38104723	0	n/a	n/a	n/a	n/a
905.9302435	2.7	engage	0.562	n/a	n/a	n/a	n/a	n/a	n/a	0	3.36	27	0
916.7171488	2.7	forage	2.348	0	-11.4047387	25	1	30.25	0	n/a	n/a	n/a	n/a
923.2598022	2.7	engage	1.109	n/a	n/a	n/a	n/a	n/a	n/a	0	28.6	4.425	1
933.3458912	2.7	forage	2.254	0	25.63788995	48.33333333	0.5	3.029716815	1	n/a	n/a	n/a	n/a
940.8048067	2.7	forage	0.769	0	-9.521083447	33.16666667	2	34.40699411	0	n/a	n/a	n/a	n/a
947.3749551	2.7	engage	0.675	n/a	n/a	n/a	n/a	n/a	n/a	0	39.53	14.11	0
958.1613056	2.7	forage	2.467	0	-2.925257113	39.66666667	0.5	30.53259393	0	n/a	n/a	n/a	n/a
965.1238325	2.7	engage	1.647	n/a	n/a	n/a	n/a	n/a	n/a	0	16.8	21.725	0
976.0120695	2.7	forage	1.186	0	-3.581146153	40.33333333	0.5	33.55	0	n/a	n/a	n/a	n/a
985.7725548	2.7	engage	0.926	n/a	n/a	n/a	n/a	n/a	n/a	0	3.355	19.52	0
993.6625541	2.7	forage	1.649	0	27.71677062	55.33333333	2	3.665089784	1	n/a	n/a	n/a	n/a
998.9273324	2.7	forage	0.816	0	-3.445148802	38.5	0.5	32.42759167	0	n/a	n/a	n/a	n/a
1004.87134	2.7	engage	0.922	n/a	n/a	n/a	n/a	n/a	n/a	0	18.33	33.6	0
1013.560738	2.7	forage	3.073	0	4.844319367	37.66666667	1	23.25541975	0	n/a	n/a	n/a	n/a
1019.487149	2.7	engage	0.787	n/a	n/a	n/a	n/a	n/a	n/a	0	25.08	19.8	1
1028.790836	2.7	forage	2.608	0	3.924583773	24	2	11.53893416	1	n/a	n/a	n/a	n/a
1035.85847	2.7	forage	0.94	0	1.119044314	20.16666667	2	13.49219355	0	n/a	n/a	n/a	n/a
1041.402491	2.7	engage	1.039	n/a	n/a	n/a	n/a	n/a	n/a	0	11.16	5.5	1
1054.194144	2.7	forage	1.369	0	-5.826259745	35	0.5	30.16249686	0	n/a	n/a	n/a	n/a
1062.967841	2.7	engage	0.969	n/a	n/a	n/a	n/a	n/a	n/a	0	46.28	18.24	1
1073.07402	2.7	forage	3.134	0	-5.088518519	44.83333333	2	35.75	0	n/a	n/a	n/a	n/a
1080.466752	2.7	engage	1.535	n/a	n/a	n/a	n/a	n/a	n/a	0	2.01	39.65	0
1090.370437	2.7	forage	1.045	0	16.59958335	41.16666667	0.5	10.28127358	1	n/a	n/a	n/a	n/a
1099.627758	2.7	forage	0.938	0	-4.542640545	30.16666667	0.5	26.70085257	0	n/a	n/a	n/a	n/a
1106.1819	2.7	engage	0.619	n/a	n/a	n/a	n/a	n/a	n/a	0	43.86	16.2	1
1117.087935	2.7	forage	1.209	0	-6.831999061	47.5	0.5	36.3	0	n/a	n/a	n/a	n/a
1123.834605	2.7	engage	0.573	n/a	n/a	n/a	n/a	n/a	n/a	0	53.13	4.44	1
1134.523072	2.7	forage	3.281	0	-8.470042419	39.16666667	1	34.51330919	0	n/a	n/a	n/a	n/a
1140.86315	2.7	engage	0.652	n/a	n/a	n/a	n/a	n/a	n/a	0	52.14	27.84	1
1151.752883	2.7	forage	1.775	0	-11.65378837	36.5	1	34.75518083	0	n/a	n/a	n/a	n/a
1158.699371	2.7	engage	0.811	n/a	n/a	n/a	n/a	n/a	n/a	0	13	54.595	0
1170.682293	2.7	forage	1.1	0	27.78863773	57.66666667	1	4.95	1	n/a	n/a	n/a	n/a
1178.148681	2.7	forage	1.705	0	-2.038455309	40.5	0.5	32.64650169	0	n/a	n/a	n/a	n/a
1185.693681	2.7	engage	1.571	n/a	n/a	n/a	n/a	n/a	n/a	0	32.5	32.96	0
1195.201286	2.7	forage	1.081	0	19.52216991	56.33333333	0.5	13.04936623	1	n/a	n/a	n/a	n/a
1202.267189	2.7	forage	1.15	0	-4.959599618	41.83333333	1	33.88662291	0	n/a	n/a	n/a	n/a
1208.842269	2.7	engage	1.441	n/a	n/a	n/a	n/a	n/a	n/a	0	13.5	18.27	0
1219.13165	2.7	forage	2.316	0	8.143249669	39.66666667	2	18.88360998	0	n/a	n/a	n/a	n/a
1226.874449	2.7	engage	0.656	n/a	n/a	n/a	n/a	n/a	n/a	0	7.6	26.455	0
1236.161992	2.7	forage	0.91	0	-7.134439582	33.5	1	34.89795785	0	n/a	n/a	n/a	n/a
1243.908829	2.7	engage	1.679	n/a	n/a	n/a	n/a	n/a	n/a	0	18.46	33.33	0
1255.19825	2.7	forage	6.563	0	17.94840249	41.16666667	1	8.235199437	1	n/a	n/a	n/a	n/a
1264.149393	2.7	forage	1.038	0	-3.96778482	32.33333333	0.5	27.57032342	0	n/a	n/a	n/a	n/a
1272.105059	2.7	engage	1.015	n/a	n/a	n/a	n/a	n/a	n/a	0	7.32	16.695	0
1282.59337	2.7	forage	2.237	0	-13.29859665	13.66666667	2	24.62799909	0	n/a	n/a	n/a	n/a
1288.537428	2.7	engage	0.946	n/a	n/a	n/a	n/a	n/a	n/a	0	10.81	17.4	0
1302.52505	2.7	forage	1.539	0	-24.7806155	14.16666667	0.5	35.53191992	0	n/a	n/a	n/a	n/a
1309.069499	2.7	engage	0.621	n/a	n/a	n/a	n/a	n/a	n/a	0	6.38	55.44	0
1318.178315	2.7	forage	1.24	0	-6.946091578	34.16666667	0.5	28.87894221	0	n/a	n/a	n/a	n/a
1325.935083	2.7	engage	0.746	n/a	n/a	n/a	n/a	n/a	n/a	0	41.8	43.855	0
1336.226955	2.7	forage	2.625	0	-3.84169693	32.83333333	1	29.7	0	n/a	n/a	n/a	n/a
1341.787766	2.7	engage	0.681	n/a	n/a	n/a	n/a	n/a	n/a	0	25.38	3.08	1
1355.378763	2.7	forage	1.091	0	28.37782372	52.83333333	1	2.056254716	1	n/a	n/a	n/a	n/a
1360.648655	2.7	forage	1.121	0	-6.809703234	35.33333333	2	33.82318797	0	n/a	n/a	n/a	n/a
1367.199174	2.7	engage	1.06	n/a	n/a	n/a	n/a	n/a	n/a	0	28.14	32.34	0
1377.386942	2.7	forage	0.891	0	29.07308133	60.5	1	5.430478849	1	n/a	n/a	n/a	n/a
1382.451927	2.7	forage	1.543	0	-2.044890096	42.66666667	2	34.23801871	0	n/a	n/a	n/a	n/a
1389.197913	2.7	engage	0.715	n/a	n/a	n/a	n/a	n/a	n/a	0	15.41	44.785	0