onset	duration	trial_type	RT	ExcludeBlock	SearchEvidence	SearchValue	SearchCosts	OfferValue	Choice_isForage	ExcludeBlock	ExpValueLeft	ExpValueRight	Choice_isLeft
6.005398263	2.7	forage	2.055	0	11.36862163	42	0.5	19.1989588	1	n/a	n/a	n/a	n/a
13.26896522	2.7	forage	1.297	0	-0.304102242	40.5	2	29.2117474	1	n/a	n/a	n/a	n/a
19.34138011	2.7	forage	1.049	0	-11.33273326	36.66666667	0.5	37.57229516	1	n/a	n/a	n/a	n/a
25.82150603	2.7	forage	0.878	0	0.969511594	37.83333333	1	27.31517278	1	n/a	n/a	n/a	n/a
33.2771639	2.7	forage	0.885	0	-11.33364988	36.66666667	0.5	37.57229516	1	n/a	n/a	n/a	n/a
39.75195079	2.7	forage	0.81	0	-10.17261808	39.33333333	0.5	36.85	1	n/a	n/a	n/a	n/a
49.21411735	2.7	forage	1.542	0	-10.56444662	34.33333333	2	35.71229314	1	n/a	n/a	n/a	n/a
56.67770854	2.7	forage	0.936	0	18.45242946	46.5	1	12.46633469	1	n/a	n/a	n/a	n/a
63.74944955	2.7	forage	1.127	0	-10.9744084	32.16666667	0.5	34.34366984	0	n/a	n/a	n/a	n/a
69.69773648	2.7	engage	0.894	n/a	n/a	n/a	n/a	n/a	n/a	0	56.615	28.62	1
81.58705168	2.7	forage	1.948	0	28.28821438	57.16666667	2	4.843269956	1	n/a	n/a	n/a	n/a
87.66984178	2.7	forage	4.695	0	-1.962479084	39.66666667	0.5	32.35004778	0	n/a	n/a	n/a	n/a
97.22715227	2.7	engage	1.45	n/a	n/a	n/a	n/a	n/a	n/a	0	22.265	18.48	1
106.3193433	2.7	forage	1.016	0	29.56285549	51.83333333	0.5	3.230174539	1	n/a	n/a	n/a	n/a
114.6017228	2.7	forage	1.677	0	12.69831715	43.16666667	1	19.91278859	1	n/a	n/a	n/a	n/a
121.0725759	2.7	forage	1.658	0	-10.89205825	31.5	2	36.35848297	0	n/a	n/a	n/a	n/a
129.829125	2.7	engage	1.725	n/a	n/a	n/a	n/a	n/a	n/a	0	45.5	41.4	1
140.7141385	2.7	forage	0.882	0	29.14754523	52.83333333	1	4.843269956	1	n/a	n/a	n/a	n/a
146.9824185	2.7	forage	0.727	0	-4.916806163	42.16666667	2	36.3	1	n/a	n/a	n/a	n/a
152.2559534	2.7	forage	1.628	0	-5.190018108	34.66666667	1	33.60178814	0	n/a	n/a	n/a	n/a
158.0067478	2.7	engage	0.999	n/a	n/a	n/a	n/a	n/a	n/a	0	14.25	29.12	0
168.29677	2.7	forage	4.034	0	-14.14295173	23.83333333	1	30.18360495	0	n/a	n/a	n/a	n/a
175.3890596	2.7	engage	2.249	n/a	n/a	n/a	n/a	n/a	n/a	0	37.76	16.215	1
186.4301458	2.7	forage	2.167	0	19.18392217	49.5	0.5	12.70842764	1	n/a	n/a	n/a	n/a
195.7109103	2.7	forage	1.255	0	2.407842329	41.5	2	27.2903023	1	n/a	n/a	n/a	n/a
204.7730054	2.7	forage	0.68	0	19.18356991	49.5	2	12.70842764	1	n/a	n/a	n/a	n/a
210.8507707	2.7	forage	0.897	0	-6.295219053	43.5	1	35.12032594	1	n/a	n/a	n/a	n/a
216.1131396	2.7	forage	0.877	0	-4.674497426	37.83333333	0.5	31.60703184	0	n/a	n/a	n/a	n/a
224.671583	2.7	engage	1.76	n/a	n/a	n/a	n/a	n/a	n/a	0	40.23	46.8	0
233.1611042	2.7	forage	1.292	0	23.20661754	48	2	7.070215281	1	n/a	n/a	n/a	n/a
240.6349651	2.7	forage	3.561	0	-12.213838	31.33333333	2	35.20456466	0	n/a	n/a	n/a	n/a
248.2512106	2.7	engage	1.723	n/a	n/a	n/a	n/a	n/a	n/a	0	38.07	47.265	0
255.9448068	2.7	forage	1.351	0	22.14702446	55.16666667	0.5	10.0971933	1	n/a	n/a	n/a	n/a
263.422484	2.7	forage	1.325	0	-9.422162198	38.83333333	1	36.18206579	0	n/a	n/a	n/a	n/a
269.1700063	2.7	engage	1.838	n/a	n/a	n/a	n/a	n/a	n/a	0	56.385	49.64	1
280.7071199	2.7	forage	4.026	0	-7.025942692	40.83333333	0.5	32.06977768	1	n/a	n/a	n/a	n/a
288.3082932	2.7	forage	1.506	0	7.446433613	45.5	0.5	20.72612796	1	n/a	n/a	n/a	n/a
294.5838345	2.7	forage	0.934	0	10.63009473	46.83333333	2	17.82294905	1	n/a	n/a	n/a	n/a
300.854547	2.7	forage	1.501	0	-14.61235183	35.83333333	1	35.22636437	0	n/a	n/a	n/a	n/a
307.6142825	2.7	engage	1.976	n/a	n/a	n/a	n/a	n/a	n/a	0	19.825	33.075	0
315.8868216	2.7	forage	1.396	0	24.44880439	40.16666667	0.5	4.061163925	1	n/a	n/a	n/a	n/a
322.157292	2.7	forage	3.985	0	-18.13624885	21.66666667	1	35.1307555	0	n/a	n/a	n/a	n/a
330.4128902	2.7	engage	3.376	n/a	n/a	n/a	n/a	n/a	n/a	0	27.54	15.96	1
341.0856806	2.7	forage	3.736	0	-22.30425163	24.16666667	2	37.95	0	n/a	n/a	n/a	n/a
350.0783306	2.7	engage	0.863	n/a	n/a	n/a	n/a	n/a	n/a	0	61.41	4.2	1
360.9755223	2.7	forage	1.923	0	-7.964687558	41.33333333	2	34.76453146	1	n/a	n/a	n/a	n/a
367.4449749	2.7	forage	0.903	0	6.00196687	46.33333333	2	23.77888939	1	n/a	n/a	n/a	n/a
375.7143905	2.7	forage	3.959	0	-6.257423671	41	1	33.18632111	1	n/a	n/a	n/a	n/a
383.0382214	2.7	forage	0.988	0	6.003080831	46.33333333	2	23.77689754	1	n/a	n/a	n/a	n/a
389.5117169	2.7	forage	0.991	0	-10.37686585	37.33333333	1	34.46177003	0	n/a	n/a	n/a	n/a
396.258827	2.7	engage	1.146	n/a	n/a	n/a	n/a	n/a	n/a	0	36.515	21.45	1
410.5487243	2.7	forage	1.135	0	30.41483493	49.5	0.5	1.514858408	1	n/a	n/a	n/a	n/a
417.8299011	2.7	forage	1.07	0	6.041186057	37	1	24.22888185	1	n/a	n/a	n/a	n/a
427.2967373	2.7	forage	1.332	0	-10.48207065	38.33333333	0.5	38.5	1	n/a	n/a	n/a	n/a
435.3655362	2.7	forage	2.624	0	-10.75458361	29.5	0.5	35.1307555	0	n/a	n/a	n/a	n/a
442.327139	2.7	engage	1.052	n/a	n/a	n/a	n/a	n/a	n/a	0	59.16	42.75	1
451.414902	2.7	forage	1.169	0	27.87387975	48.83333333	0.5	4.581396811	1	n/a	n/a	n/a	n/a
457.8933799	2.7	forage	0.886	0	-8.05279379	38	1	36.85	1	n/a	n/a	n/a	n/a
464.3594014	2.7	forage	0.788	0	1.710294083	40.83333333	0.5	29.15	1	n/a	n/a	n/a	n/a
471.4235378	2.7	forage	1.367	0	-9.88165099	30.5	2	34.73504099	0	n/a	n/a	n/a	n/a
480.9869884	2.7	engage	1.491	n/a	n/a	n/a	n/a	n/a	n/a	0	47.595	56.28	0
492.0799478	2.7	forage	4.248	0	-8.510502825	34.33333333	1	34.95923495	0	n/a	n/a	n/a	n/a
501.1856861	2.7	engage	2.579	n/a	n/a	n/a	n/a	n/a	n/a	0	31.775	20.7	1
513.6631557	2.7	forage	1.162	0	11.10555891	40.83333333	0.5	16.5	1	n/a	n/a	n/a	n/a
519.9308884	2.7	forage	3.816	0	-5.312437671	29.66666667	2	28.16182033	0	n/a	n/a	n/a	n/a
526.8008346	2.7	engage	1.454	n/a	n/a	n/a	n/a	n/a	n/a	0	14.1	15.12	0
538.7140407	2.7	forage	0.761	0	10.36816072	44.33333333	0.5	19.96338715	1	n/a	n/a	n/a	n/a
545.9809248	2.7	forage	1.192	0	-5.227909394	40.33333333	2	33	1	n/a	n/a	n/a	n/a
551.4503303	2.7	forage	7.498	0	-2.204846839	38.5	2	30.20559831	1	n/a	n/a	n/a	n/a
562.7270274	2.7	forage	1.139	0	8.184425666	39.66666667	0.5	21.27123133	1	n/a	n/a	n/a	n/a
570.2000562	2.7	forage	0.83	0	-5.255454119	40.5	1	33	1	n/a	n/a	n/a	n/a
578.2759007	2.7	forage	1.661	0	8.185653974	39.66666667	1	21.27106534	1	n/a	n/a	n/a	n/a
584.5434567	2.7	forage	1.658	0	-14.00097698	31	1	35.97557718	0	n/a	n/a	n/a	n/a
591.4968638	2.7	engage	5.478	n/a	n/a	n/a	n/a	n/a	n/a	0	47.1	45.54	1
605.7747498	2.7	forage	4.987	0	-0.253529501	47.33333333	0.5	27.97646748	0	n/a	n/a	n/a	n/a
613.8288686	2.7	engage	0.936	n/a	n/a	n/a	n/a	n/a	n/a	0	37.68	16.165	1
623.7373791	2.7	forage	1.428	0	0.765763627	20.66666667	1	13.73423118	1	n/a	n/a	n/a	n/a
629.9992541	2.7	forage	0.931	0	-0.633930721	20.66666667	2	14.85	1	n/a	n/a	n/a	n/a
638.0708107	2.7	forage	10.024	0	5.383384471	20.66666667	1	9.599479402	1	n/a	n/a	n/a	n/a
652.6632105	2.7	forage	2.542	0	-1.799803833	17	0.5	14.71231326	0	n/a	n/a	n/a	n/a
660.6129364	2.7	engage	0.669	n/a	n/a	n/a	n/a	n/a	n/a	0	8.625	22.68	0
671.1192038	2.7	forage	1.528	0	-1.109594085	37	2	27.5	1	n/a	n/a	n/a	n/a
677.389015	2.7	forage	1.998	0	-7.691573362	32	0.5	32.10590765	1	n/a	n/a	n/a	n/a
687.5679427	2.7	forage	0.951	0	-9.737649347	31	0.5	33.4252603	1	n/a	n/a	n/a	n/a
693.8471151	2.7	forage	2.005	0	8.75723421	39.5	0.5	19.25	1	n/a	n/a	n/a	n/a
700.1105319	2.7	forage	1.198	0	0.514165116	33.33333333	1	25.43799105	1	n/a	n/a	n/a	n/a
706.1827189	2.7	forage	1.322	0	-8.856933756	34.66666667	1	33.55	1	n/a	n/a	n/a	n/a
712.2585512	2.7	forage	0.803	0	13.4745048	37.5	0.5	14.71189829	1	n/a	n/a	n/a	n/a
718.5301821	2.7	forage	2.929	0	-1.109051859	37	0.5	27.5	1	n/a	n/a	n/a	n/a
723.8464707	2.7	forage	0.701	0	15.09370857	40.66666667	2	13.3516297	1	n/a	n/a	n/a	n/a
730.1282964	2.7	forage	1.564	0	9.700669148	35.83333333	1	17.91651074	1	n/a	n/a	n/a	n/a
738.1973995	2.7	forage	1.411	0	-9.988526734	31.5	0.5	33.87185001	1	n/a	n/a	n/a	n/a
744.6702593	2.7	forage	0.686	0	-1.108812099	37	2	27.5	1	n/a	n/a	n/a	n/a
750.9425542	2.7	forage	0.677	0	8.87015006	39	1	19.18382627	1	n/a	n/a	n/a	n/a
756.1965087	2.7	forage	2.107	0	-11.79441494	27.33333333	1	32.64650169	0	n/a	n/a	n/a	n/a
763.7529176	2.7	engage	1.142	n/a	n/a	n/a	n/a	n/a	n/a	0	19.75	28.16	0
771.2440983	2.7	forage	2.505	0	-13.11865684	24.16666667	2	31.04848348	1	n/a	n/a	n/a	n/a
777.7208136	2.7	forage	1.036	0	3.529643881	33	0.5	19.8	1	n/a	n/a	n/a	n/a
784.1914705	2.7	forage	1.029	0	-13.87054206	26.83333333	2	33.16814547	1	n/a	n/a	n/a	n/a
791.2469635	2.7	forage	0.868	0	4.965460825	32.83333333	1	18.61009004	1	n/a	n/a	n/a	n/a
798.3242969	2.7	forage	0.952	0	4.776819576	31	1	18.50629244	1	n/a	n/a	n/a	n/a
804.7902588	2.7	forage	0.766	0	-2.558271381	31	1	24.75	1	n/a	n/a	n/a	n/a
810.0595983	2.7	forage	1.57	0	3.52976745	33	0.5	19.8	1	n/a	n/a	n/a	n/a
816.5375129	2.7	forage	2.28	0	4.676706906	29.16666667	2	17.98791308	1	n/a	n/a	n/a	n/a
822.0112792	2.7	forage	1.647	0	-14.26652214	28.83333333	2	33.55	0	n/a	n/a	n/a	n/a
827.5656685	2.7	engage	1.078	n/a	n/a	n/a	n/a	n/a	n/a	0	2.79	25.01	0
838.6562783	2.7	forage	1.07	0	30.71925071	48.66666667	2	2.058799859	1	n/a	n/a	n/a	n/a
844.7360915	2.7	forage	1.067	0	-6.574782791	36	2	35.59861928	1	n/a	n/a	n/a	n/a
851.8051499	2.7	forage	0.737	0	-8.916069614	34.16666667	2	36.9814622	1	n/a	n/a	n/a	n/a
857.2702201	2.7	forage	1.879	0	-6.359542947	38.5	0.5	35.75	1	n/a	n/a	n/a	n/a
863.3256214	2.7	forage	0.725	0	-12.07192227	28.16666667	2	35.97507922	0	n/a	n/a	n/a	n/a
871.2834575	2.7	engage	2.518	n/a	n/a	n/a	n/a	n/a	n/a	0	42.78	19.5	1
883.9552331	2.7	forage	1.674	0	11.8638826	35.16666667	2	13.13188974	1	n/a	n/a	n/a	n/a
889.0404686	2.7	forage	3.065	0	-8.121274751	29.16666667	0.5	29.32514461	1	n/a	n/a	n/a	n/a
895.6868605	2.7	forage	1.16	0	-0.011844139	30.33333333	0.5	22.74699965	1	n/a	n/a	n/a	n/a
905.1613262	2.7	forage	0.914	0	-7.975568969	28.83333333	2	29.04551079	1	n/a	n/a	n/a	n/a
911.4382027	2.7	forage	0.682	0	11.53975856	37.83333333	2	13.2	1	n/a	n/a	n/a	n/a
916.9216344	2.7	forage	1.135	0	9.815897758	33.5	0.5	14.91105578	1	n/a	n/a	n/a	n/a
924.3989699	2.7	forage	0.661	0	11.53657345	37.83333333	0.5	13.2	1	n/a	n/a	n/a	n/a
931.656923	2.7	forage	1.618	0	-7.314003152	30.5	1	29.05961974	1	n/a	n/a	n/a	n/a
937.9315924	2.7	forage	0.962	0	9.218366279	37.16666667	2	15.4	1	n/a	n/a	n/a	n/a
943.3883536	2.7	forage	1.957	0	11.86016632	35.16666667	1	13.13321764	1	n/a	n/a	n/a	n/a
949.4622123	2.7	forage	0.806	0	10.2726164	33.83333333	0.5	14.5441678	1	n/a	n/a	n/a	n/a
958.9267403	2.7	forage	1.997	0	-6.464375199	29.16666667	1	27.8943866	1	n/a	n/a	n/a	n/a
964.2018541	2.7	forage	0.814	0	-1.867908556	34.33333333	0.5	24.75	1	n/a	n/a	n/a	n/a
970.2845498	2.7	forage	0.749	0	11.10538739	34.16666667	2	13.81581409	1	n/a	n/a	n/a	n/a
975.7685928	2.7	forage	1.208	0	-9.753772278	32.5	1	30.8	1	n/a	n/a	n/a	n/a
984.2437423	2.7	forage	0.877	0	12.86129856	35.5	0.5	12.18349178	1	n/a	n/a	n/a	n/a
989.5058408	2.7	forage	1.084	0	-13.44018778	24.16666667	2	30.28051406	0	n/a	n/a	n/a	n/a
996.4719371	2.7	engage	1.032	n/a	n/a	n/a	n/a	n/a	n/a	0	12.32	21.06	0
1006.768046	2.7	forage	1.058	0	27.42199873	45.83333333	1	5.120220311	1	n/a	n/a	n/a	n/a
1013.240358	2.7	forage	5.916	0	-8.963647201	29.33333333	0.5	33.61556511	0	n/a	n/a	n/a	n/a
1023.020345	2.7	engage	1.866	n/a	n/a	n/a	n/a	n/a	n/a	0	39.27	39.525	1
1036.380124	2.7	forage	1.363	0	-8.389875928	29	1	27.84981892	0	n/a	n/a	n/a	n/a
1042.935844	2.7	engage	0.922	n/a	n/a	n/a	n/a	n/a	n/a	0	17.6	47.575	0
1053.828144	2.7	forage	2.305	0	6.701761481	41.33333333	1	23.26983301	1	n/a	n/a	n/a	n/a
1062.108316	2.7	forage	0.983	0	-9.453238771	34	2	34.14675318	0	n/a	n/a	n/a	n/a
1067.867647	2.7	engage	7.948	n/a	n/a	n/a	n/a	n/a	n/a	0	39.15	13.65	1
1083.509574	2.7	forage	1.209	0	-4.296222692	43.33333333	0.5	31.54592073	1	n/a	n/a	n/a	n/a
1091.78305	2.7	forage	0.928	0	0.513266938	42.66666667	1	27.49701222	1	n/a	n/a	n/a	n/a
1098.049158	2.7	forage	0.844	0	-4.044777258	42.16666667	0.5	31.23165082	1	n/a	n/a	n/a	n/a
1103.513581	2.7	forage	0.706	0	-2.296757876	42	0.5	29.72877119	1	n/a	n/a	n/a	n/a
1109.784349	2.7	forage	0.71	0	-5.045542478	43.16666667	1	32.13686434	1	n/a	n/a	n/a	n/a
1115.045995	2.7	forage	8.036	0	-6.003726338	38	0.5	30.91834918	0	n/a	n/a	n/a	n/a
1126.947318	2.7	engage	3.306	n/a	n/a	n/a	n/a	n/a	n/a	0	38.61	24.07	1
1136.554922	2.7	forage	0.866	0	24.54723689	46	0.5	5.867385946	1	n/a	n/a	n/a	n/a
1144.030431	2.7	forage	1.609	0	1.720233053	34	1	25.77721443	1	n/a	n/a	n/a	n/a
1151.102791	2.7	forage	5.341	0	-3.99722918	37	0.5	31.9	1	n/a	n/a	n/a	n/a
1159.81005	2.7	forage	0.796	0	-10.39359925	36.66666667	1	36.85	1	n/a	n/a	n/a	n/a
1165.875486	2.7	forage	11.743	0	-0.147415455	33.5	0.5	27.25749208	1	n/a	n/a	n/a	n/a
1181.386234	2.7	forage	0.988	0	-10.38029442	35.66666667	0.5	36.85	1	n/a	n/a	n/a	n/a
1189.656841	2.7	forage	1.003	0	-1.220647184	38.83333333	2	29.7	1	n/a	n/a	n/a	n/a
1194.732303	2.7	forage	0.759	0	-10.84795533	28.83333333	2	34.06406368	1	n/a	n/a	n/a	n/a
1200.197035	2.7	forage	1.872	0	25.12931861	46.16666667	2	5.277244605	1	n/a	n/a	n/a	n/a
1207.65546	2.7	forage	0.772	0	-11.5955636	28.33333333	0.5	34.34366984	0	n/a	n/a	n/a	n/a
1215.408582	2.7	engage	0.869	n/a	n/a	n/a	n/a	n/a	n/a	0	38.19	48.6	0
1226.52084	2.7	forage	1.226	0	12.74983602	40.83333333	0.5	14.97565263	1	n/a	n/a	n/a	n/a
1231.591493	2.7	forage	0.822	0	14.72178378	41	0.5	13.14721593	1	n/a	n/a	n/a	n/a
1238.86083	2.7	forage	2.65	0	-6.205969351	31	1	28.33524974	0	n/a	n/a	n/a	n/a
1244.62342	2.7	engage	0.823	n/a	n/a	n/a	n/a	n/a	n/a	0	44.82	24.96	1
1253.714831	2.7	forage	1.108	0	27.55720118	49.5	0.5	3.814589306	1	n/a	n/a	n/a	n/a
1261.790114	2.7	forage	0.798	0	-9.687987693	30.5	2	34.34674061	0	n/a	n/a	n/a	n/a
1270.555198	2.7	engage	0.713	n/a	n/a	n/a	n/a	n/a	n/a	0	58.41	33.345	1
1282.147435	2.7	forage	3.813	0	-6.361538487	44.5	0.5	35.4039158	0	n/a	n/a	n/a	n/a
1293.020535	2.7	engage	2.223	n/a	n/a	n/a	n/a	n/a	n/a	0	30.315	27.65	0
1301.945844	2.7	forage	0.891	0	30.02600339	59.33333333	2	3.230174539	1	n/a	n/a	n/a	n/a
1308.422366	2.7	forage	1.093	0	4.372781718	43.5	2	28.3974951	1	n/a	n/a	n/a	n/a
1313.701553	2.7	forage	0.769	0	-2.62019952	49.66666667	1	35.2	1	n/a	n/a	n/a	n/a
1318.971023	2.7	forage	0.764	0	-6.88747397	38.83333333	0.5	36.18206579	0	n/a	n/a	n/a	n/a
1325.918368	2.7	engage	1.444	n/a	n/a	n/a	n/a	n/a	n/a	0	60.86	53.865	1
1335.612295	2.7	forage	0.877	0	29.3396464	54.33333333	2	3.540488406	1	n/a	n/a	n/a	n/a
1344.082791	2.7	forage	1.097	0	1.27011703	42.5	0.5	30.34710276	1	n/a	n/a	n/a	n/a
1349.162263	2.7	forage	1.12	0	-7.623758195	43.66666667	1	37.95	1	n/a	n/a	n/a	n/a
1359.138637	2.7	forage	0.912	0	-4.17618044	36.5	1	32.78819979	0	n/a	n/a	n/a	n/a
1366.08264	2.7	engage	0.598	n/a	n/a	n/a	n/a	n/a	n/a	0	52.155	18.56	1
1374.592035	2.7	forage	1.272	0	-12.06270074	22.16666667	2	28.58738494	0	n/a	n/a	n/a	n/a
1381.148395	2.7	engage	0.899	n/a	n/a	n/a	n/a	n/a	n/a	0	11.48	23.32	0
1391.241407	2.7	forage	0.775	0	20.33878477	37	1	8.357062019	1	n/a	n/a	n/a	n/a
1397.715003	2.7	forage	0.722	0	15.12665895	35.83333333	2	13.16763241	1	n/a	n/a	n/a	n/a
1404.186419	2.7	forage	0.978	0	-13.26311587	28.33333333	0.5	36.3	1	n/a	n/a	n/a	n/a
1413.37676	2.7	forage	1.409	0	-5.100480693	27.66666667	0.5	28.73375836	1	n/a	n/a	n/a	n/a
1420.449931	2.7	forage	0.996	0	-13.26340543	28.33333333	1	36.3	1	n/a	n/a	n/a	n/a
1426.525837	2.7	forage	0.885	0	-10.6814845	27.83333333	0.5	33.97528796	1	n/a	n/a	n/a	n/a
1433.003273	2.7	forage	0.969	0	-5.101465553	27.66666667	0.5	28.73461596	1	n/a	n/a	n/a	n/a
1438.085102	2.7	forage	4.375	0	-13.25175863	28.83333333	1	36.3	1	n/a	n/a	n/a	n/a
1447.02429	2.7	forage	1.371	0	24.29630233	38.16666667	2	4.587704341	1	n/a	n/a	n/a	n/a
1454.102052	2.7	forage	1.4	0	-5.356096105	30.66666667	1	30.25	1	n/a	n/a	n/a	n/a
1459.386057	2.7	forage	2.211	0	15.2409193	35.66666667	1	13.06032141	1	n/a	n/a	n/a	n/a
1467.457977	2.7	forage	0.842	0	-5.368161561	30.16666667	2	30.25	1	n/a	n/a	n/a	n/a
1474.927906	2.7	forage	1.303	0	-10.33839176	26.5	2	32.84900659	1	n/a	n/a	n/a	n/a
1480.998414	2.7	forage	0.743	0	24.3230079	38.33333333	1	4.544575223	1	n/a	n/a	n/a	n/a
1487.061991	2.7	forage	1.096	0	-10.33882149	26.5	0.5	32.84900659	1	n/a	n/a	n/a	n/a
1494.541765	2.7	forage	1.63	0	-5.35614959	30.66666667	1	30.25	1	n/a	n/a	n/a	n/a
1500.820395	2.7	forage	0.701	0	-19.41705548	19.5	2	35.30329963	0	n/a	n/a	n/a	n/a
1508.590565	2.7	engage	0.663	n/a	n/a	n/a	n/a	n/a	n/a	0	20.79	12.71	1
1520.685576	2.7	forage	1.013	0	-11.4899881	31.16666667	0.5	34.91239877	1	n/a	n/a	n/a	n/a
1526.952834	2.7	forage	0.714	0	3.970151066	35.83333333	2	22.89085559	1	n/a	n/a	n/a	n/a
1536.018672	2.7	forage	0.712	0	18.21032728	40.33333333	0.5	9.968276244	1	n/a	n/a	n/a	n/a
1541.485509	2.7	forage	0.756	0	-12.24662609	26.33333333	0.5	32.42759167	0	n/a	n/a	n/a	n/a
1550.038115	2.7	engage	0.694	n/a	n/a	n/a	n/a	n/a	n/a	0	16.92	34.88	0
1557.929701	2.7	forage	4.332	0	31.84457858	59.5	2	2.559501534	1	n/a	n/a	n/a	n/a
1565.849302	2.7	forage	1.09	0	-3.922988448	40	2	34.75529148	0	n/a	n/a	n/a	n/a
1573.603232	2.7	engage	1.514	n/a	n/a	n/a	n/a	n/a	n/a	0	31.72	20.475	1
1583.09928	2.7	forage	0.79	0	29.48390255	55.33333333	2	2.560110155	1	n/a	n/a	n/a	n/a
1590.571684	2.7	forage	3.082	0	-3.176890666	39	2	32.821176	1	n/a	n/a	n/a	n/a
1597.030053	2.7	forage	0.772	0	-9.30612947	35.16666667	2	35.97582617	0	n/a	n/a	n/a	n/a
1603.784712	2.7	engage	1.478	n/a	n/a	n/a	n/a	n/a	n/a	0	28.56	13.95	1
1614.676591	2.7	forage	1.275	0	-6.429556528	29.66666667	2	27.61898546	0	n/a	n/a	n/a	n/a
1622.237225	2.7	engage	0.731	n/a	n/a	n/a	n/a	n/a	n/a	0	21.85	31.535	0
1633.12511	2.7	forage	5.816	0	20.08067585	55.83333333	1	10.86250692	1	n/a	n/a	n/a	n/a
1645.729812	2.7	forage	0.73	0	-1.571611421	41.5	2	30.8300161	0	n/a	n/a	n/a	n/a
1653.281622	2.7	engage	0.906	n/a	n/a	n/a	n/a	n/a	n/a	0	11.685	34.375	0
1663.378213	2.7	forage	1.576	0	-6.701062488	42.5	2	35.97582617	0	n/a	n/a	n/a	n/a
1670.930608	2.7	engage	1.219	n/a	n/a	n/a	n/a	n/a	n/a	0	34	48.67	0
1681.243946	2.7	forage	1.118	0	-2.111017722	51.33333333	1	33.49140637	1	n/a	n/a	n/a	n/a
1688.320124	2.7	forage	1.027	0	-6.603648039	46.33333333	2	35.4320507	0	n/a	n/a	n/a	n/a
1695.064332	2.7	engage	1.889	n/a	n/a	n/a	n/a	n/a	n/a	0	37.74	48.675	0
1708.854319	2.7	forage	3.287	0	19.40571484	51.5	0.5	13.27519239	1	n/a	n/a	n/a	n/a
1718.924886	2.7	forage	0.839	0	-1.931312141	39.66666667	2	30.8787058	0	n/a	n/a	n/a	n/a
1724.877324	2.7	engage	1.089	n/a	n/a	n/a	n/a	n/a	n/a	0	16.815	25.74	0
1735.172092	2.7	forage	1.037	0	23.76596633	37.83333333	2	4.588368291	1	n/a	n/a	n/a	n/a
1742.249301	2.7	forage	0.739	0	-8.083813188	28.83333333	2	31.9	1	n/a	n/a	n/a	n/a
1749.713936	2.7	forage	4.305	0	-16.57508358	27.66666667	1	38.5	1	n/a	n/a	n/a	n/a
1759.576678	2.7	forage	1.363	0	0.548963499	26.83333333	0.5	22.70885016	1	n/a	n/a	n/a	n/a
1767.654957	2.7	forage	0.885	0	-20.48727177	19.16666667	2	36.07392485	0	n/a	n/a	n/a	n/a
1775.624143	2.7	engage	0.932	n/a	n/a	n/a	n/a	n/a	n/a	0	12.76	63	0
1786.520795	2.7	forage	1.21	0	-11.30115504	28.5	1	31.35	1	n/a	n/a	n/a	n/a
1794.791082	2.7	forage	1.447	0	-6.795638549	26.66666667	1	27.72632413	1	n/a	n/a	n/a	n/a
1801.269444	2.7	forage	0.734	0	-2.482429791	28	0.5	24.49612193	1	n/a	n/a	n/a	n/a
1809.548023	2.7	forage	7.85	0	-6.469616719	25.83333333	2	26.99036266	1	n/a	n/a	n/a	n/a
1820.781683	2.7	forage	0.707	0	-2.28113844	27.66666667	0.5	24.18854685	1	n/a	n/a	n/a	n/a
1829.257667	2.7	forage	1.166	0	-14.98564509	20.33333333	1	30.16249686	0	n/a	n/a	n/a	n/a
1838.020289	2.7	engage	0.955	n/a	n/a	n/a	n/a	n/a	n/a	0	34.06	19.665	1
1846.513006	2.7	forage	0.662	0	23.50621599	48.33333333	0.5	6.565944872	1	n/a	n/a	n/a	n/a
1853.985806	2.7	forage	0.828	0	-7.704750935	33.66666667	2	32.83304411	1	n/a	n/a	n/a	n/a
1860.251074	2.7	forage	0.665	0	16.68152038	45.33333333	1	13.9471933	1	n/a	n/a	n/a	n/a
1868.730384	2.7	forage	1.304	0	-6.923369716	35.33333333	1	33.18632111	0	n/a	n/a	n/a	n/a
1874.484818	2.7	engage	4.938	n/a	n/a	n/a	n/a	n/a	n/a	0	47.125	22.925	1
1888.926945	2.7	forage	3.089	0	-13.29276126	24.5	0.5	32.3091595	0	n/a	n/a	n/a	n/a
1895.283525	2.7	engage	1.978	n/a	n/a	n/a	n/a	n/a	n/a	0	27.84	34.615	1
1904.959381	2.7	forage	2.392	0	-0.21922908	36.16666667	1	25.74318696	1	n/a	n/a	n/a	n/a
1913.23423	2.7	forage	0.7	0	-1.008500243	37.33333333	0.5	26.76439817	1	n/a	n/a	n/a	n/a
1920.509024	2.7	forage	0.849	0	8.27554734	43.83333333	0.5	18.7	1	n/a	n/a	n/a	n/a
1926.794699	2.7	forage	1.095	0	-0.202608185	37.33333333	0.5	26.07740305	1	n/a	n/a	n/a	n/a
1932.864484	2.7	forage	0.685	0	10.18452861	40.33333333	2	17.295966	1	n/a	n/a	n/a	n/a
1942.142223	2.7	forage	0.826	0	-4.583751991	33.33333333	2	28.0826719	0	n/a	n/a	n/a	n/a
1947.896931	2.7	engage	0.756	n/a	n/a	n/a	n/a	n/a	n/a	0	12.74	25.5	0
1956.99046	2.7	forage	1.027	0	25.44555455	44.83333333	1	3.555703938	1	n/a	n/a	n/a	n/a
1963.063079	2.7	forage	0.752	0	-10.22691632	27.33333333	2	32.01447613	0	n/a	n/a	n/a	n/a
1971.628799	2.7	engage	0.547	n/a	n/a	n/a	n/a	n/a	n/a	0	28.28	46.2	0
1981.721713	2.7	forage	1.134	0	7.05154905	46	1	25.06894522	1	n/a	n/a	n/a	n/a
1988.004322	2.7	forage	2.05	0	6.682912664	48.83333333	1	25.3	1	n/a	n/a	n/a	n/a
1993.088332	2.7	forage	1.591	0	18.59708214	49.33333333	0.5	14.21407374	1	n/a	n/a	n/a	n/a
1999.16624	2.7	forage	0.879	0	-8.93764985	45	1	37.95	1	n/a	n/a	n/a	n/a
2005.625209	2.7	forage	1.811	0	-2.602121624	39.16666667	1	31.58678135	1	n/a	n/a	n/a	n/a
2011.89245	2.7	forage	0.817	0	18.59962359	49.33333333	2	14.21155626	1	n/a	n/a	n/a	n/a
2019.169502	2.7	forage	1.287	0	-8.5393109	36.33333333	1	34.98429908	0	n/a	n/a	n/a	n/a
2024.725603	2.7	engage	1.49	n/a	n/a	n/a	n/a	n/a	n/a	0	51.675	46.19	1
2034.820205	2.7	forage	0.814	0	24.79088091	59.66666667	0.5	8.25	1	n/a	n/a	n/a	n/a
2041.104436	2.7	forage	3.883	0	-1.453896685	42.66666667	0.5	32.78828278	1	n/a	n/a	n/a	n/a
2048.567638	2.7	forage	2.025	0	2.068049059	50.5	0.5	31.20940848	1	n/a	n/a	n/a	n/a
2054.842671	2.7	forage	1.1	0	-1.453985212	42.66666667	2	32.78828278	0	n/a	n/a	n/a	n/a
2062.606582	2.7	engage	1.151	n/a	n/a	n/a	n/a	n/a	n/a	0	13.92	13.115	0
2074.916683	2.7	forage	1.867	0	-0.254529115	48.16666667	1	28.76922439	1	n/a	n/a	n/a	n/a
2080.002279	2.7	forage	0.951	0	5.927006857	46.33333333	2	23.75080982	1	n/a	n/a	n/a	n/a
2085.481	2.7	forage	0.677	0	7.806523481	50.16666667	1	21.70138826	1	n/a	n/a	n/a	n/a
2094.755344	2.7	forage	1.513	0	-9.941784618	40.33333333	2	35.33760374	0	n/a	n/a	n/a	n/a
2101.704195	2.7	engage	1.771	n/a	n/a	n/a	n/a	n/a	n/a	0	24.5	17.02	1
2114.21292	2.7	forage	1.048	0	22.94536777	49.33333333	0.5	7.483137166	1	n/a	n/a	n/a	n/a
2120.691858	2.7	forage	0.897	0	-4.359259259	34.16666667	0.5	30.5143353	0	n/a	n/a	n/a	n/a
2126.638209	2.7	engage	0.522	n/a	n/a	n/a	n/a	n/a	n/a	0	52.2	11.7	1
2137.936892	2.7	forage	0.944	0	27.97515249	45.16666667	2	2.058799859	1	n/a	n/a	n/a	n/a
2143.009137	2.7	forage	0.869	0	-10.7929415	28.83333333	0.5	34.76987073	0	n/a	n/a	n/a	n/a
2150.584518	2.7	engage	1.295	n/a	n/a	n/a	n/a	n/a	n/a	0	45.22	16.92	1
2158.682137	2.7	forage	0.819	0	14.96176316	53.83333333	2	16.34903425	1	n/a	n/a	n/a	n/a
2164.958938	2.7	forage	1.047	0	0.508091813	48	1	29.32127157	1	n/a	n/a	n/a	n/a
2173.046878	2.7	forage	1.275	0	-2.416864678	45.66666667	2	31.05808309	0	n/a	n/a	n/a	n/a
2180.79931	2.7	engage	0.702	n/a	n/a	n/a	n/a	n/a	n/a	0	38.735	34.075	1
2189.909395	2.7	forage	0.986	0	20.24250272	40.33333333	2	8.137128414	1	n/a	n/a	n/a	n/a
2197.390354	2.7	forage	1.223	0	-10.30213085	30.16666667	2	33.59542528	1	n/a	n/a	n/a	n/a
2205.900721	2.7	forage	0.857	0	3.891751421	31.66666667	0.5	21.43456315	1	n/a	n/a	n/a	n/a
2213.172864	2.7	forage	1.697	0	-14.63046108	30.5	1	37.37410593	1	n/a	n/a	n/a	n/a
2219.660648	2.7	forage	2.296	0	-10.11952048	28	1	32.00133545	1	n/a	n/a	n/a	n/a
2225.729702	2.7	forage	1.093	0	22.60009691	41.16666667	0.5	5.653953523	1	n/a	n/a	n/a	n/a
2233.200669	2.7	forage	0.658	0	5.736222524	33.83333333	2	20.85692621	1	n/a	n/a	n/a	n/a
2239.666825	2.7	forage	0.72	0	-14.66054172	31.66666667	0.5	37.4	1	n/a	n/a	n/a	n/a
2246.938175	2.7	forage	0.755	0	-10.93744664	32.16666667	2	34.65	1	n/a	n/a	n/a	n/a
2253.417657	2.7	forage	0.675	0	8.7096806	35.83333333	1	18.77032342	1	n/a	n/a	n/a	n/a
2258.482278	2.7	forage	0.704	0	-14.16513505	29.33333333	2	36.54474876	1	n/a	n/a	n/a	n/a
2263.951546	2.7	forage	3.228	0	-10.11949835	28	0.5	32.00133545	0	n/a	n/a	n/a	n/a
2274.426914	2.7	engage	1.098	n/a	n/a	n/a	n/a	n/a	n/a	0	22.05	29.52	0
2283.321171	2.7	forage	0.753	0	25.19061969	54.16666667	0.5	7.574292038	1	n/a	n/a	n/a	n/a
2289.600623	2.7	forage	0.917	0	-7.921062321	37.16666667	2	35.23668327	0	n/a	n/a	n/a	n/a
2298.158771	2.7	engage	1.382	n/a	n/a	n/a	n/a	n/a	n/a	0	41.54	31.8	1
2308.852389	2.7	forage	0.774	0	28.24857469	54.5	2	4.390040742	1	n/a	n/a	n/a	n/a
2317.928176	2.7	forage	0.758	0	7.134955988	41.33333333	2	24.90926513	1	n/a	n/a	n/a	n/a
2324.398391	2.7	forage	0.756	0	-10.88498902	33.83333333	2	36.94920527	0	n/a	n/a	n/a	n/a
2330.156854	2.7	engage	1.209	n/a	n/a	n/a	n/a	n/a	n/a	0	50.37	43.225	1
2340.451737	2.7	forage	1.983	0	-14.44604882	22.83333333	0.5	31.7810422	1	n/a	n/a	n/a	n/a
2347.538202	2.7	forage	0.733	0	-3.339213655	25.83333333	1	23.46904582	1	n/a	n/a	n/a	n/a
2356.01751	2.7	forage	0.791	0	15.41262613	32.33333333	0.5	7.14723354	1	n/a	n/a	n/a	n/a
2362.494001	2.7	forage	0.879	0	-15.83113442	18.16666667	2	29.41101554	0	n/a	n/a	n/a	n/a
2369.041252	2.7	engage	1.513	n/a	n/a	n/a	n/a	n/a	n/a	0	22.575	12.18	1
2377.33132	2.7	forage	0.982	0	1.897194306	34.33333333	2	21.40532166	1	n/a	n/a	n/a	n/a
2382.617003	2.7	forage	1.499	0	12.0411537	36.83333333	2	12.70842764	1	n/a	n/a	n/a	n/a
2388.099955	2.7	forage	1.181	0	-1.772098654	33.5	0.5	24.33948494	1	n/a	n/a	n/a	n/a
2394.175179	2.7	forage	0.789	0	10.4784595	36.33333333	2	14.13666818	1	n/a	n/a	n/a	n/a
2403.945806	2.7	forage	0.645	0	13.46948644	37.5	1	11.30790705	1	n/a	n/a	n/a	n/a
2410.018426	2.7	forage	1.116	0	-17.76167748	25.5	2	33.34376037	0	n/a	n/a	n/a	n/a
2418.568047	2.7	engage	0.911	n/a	n/a	n/a	n/a	n/a	n/a	0	23.69	15.18	1
2427.464243	2.7	forage	1.41	0	-12.23964908	33.5	2	35.75	1	n/a	n/a	n/a	n/a
2432.535343	2.7	forage	1.118	0	-7.697519407	30.83333333	0.5	31.12857251	0	n/a	n/a	n/a	n/a
2441.300023	2.7	engage	2.42	n/a	n/a	n/a	n/a	n/a	n/a	0	29.28	22.77	1
2453.622638	2.7	forage	1.085	0	24.17862633	51	0.5	4.95	1	n/a	n/a	n/a	n/a
2459.891886	2.7	forage	1.147	0	-7.793744278	33.33333333	2	32.72263468	0	n/a	n/a	n/a	n/a
2468.448313	2.7	engage	1.114	n/a	n/a	n/a	n/a	n/a	n/a	0	22.995	38.34	0
2481.061285	2.7	forage	2.559	0	0.351167111	36	2	26.82833107	1	n/a	n/a	n/a	n/a
2487.334813	2.7	forage	0.969	0	-5.73677766	34.83333333	0.5	31.70230874	1	n/a	n/a	n/a	n/a
2495.605982	2.7	forage	7.265	0	17.43539376	44.16666667	2	11.55	1	n/a	n/a	n/a	n/a
2507.657701	2.7	forage	2.929	0	-4.804773737	33.16666667	2	30.29509331	1	n/a	n/a	n/a	n/a
2514.357196	2.7	forage	0.786	0	0.21415908	36.16666667	0.5	26.98056939	1	n/a	n/a	n/a	n/a
2519.837281	2.7	forage	1.347	0	-13.15557433	31.33333333	0.5	36.65643076	0	n/a	n/a	n/a	n/a
2529.594561	2.7	engage	1.88	n/a	n/a	n/a	n/a	n/a	n/a	0	16.8	19.6	0
2540.588112	2.7	forage	3.043	0	6.054210553	43.5	1	24.70191892	1	n/a	n/a	n/a	n/a
2551.104807	2.7	forage	0.777	0	-4.728334591	39	0.5	32.33964589	0	n/a	n/a	n/a	n/a
2557.862773	2.7	engage	1.738	n/a	n/a	n/a	n/a	n/a	n/a	0	39.68	30.78	1
2569.159418	2.7	forage	2.062	0	-8.048592458	26.33333333	0.5	29.07419898	1	n/a	n/a	n/a	n/a
2575.441093	2.7	forage	1.108	0	-8.874797713	27.16666667	1	30.34710276	1	n/a	n/a	n/a	n/a
2581.715402	2.7	forage	0.697	0	-1.88165602	31.33333333	1	25.83406519	1	n/a	n/a	n/a	n/a
2587.992639	2.7	forage	0.983	0	12.29238335	36	0.5	13.75	1	n/a	n/a	n/a	n/a
2594.469712	2.7	forage	0.781	0	-11.29716949	23.5	0.5	29.7594789	0	n/a	n/a	n/a	n/a
2600.423564	2.7	engage	0.693	n/a	n/a	n/a	n/a	n/a	n/a	0	47.85	25.145	1
2609.521235	2.7	forage	1.042	0	-6.322295324	30.83333333	2	28.9460842	0	n/a	n/a	n/a	n/a
2618.272482	2.7	engage	1.02	n/a	n/a	n/a	n/a	n/a	n/a	0	16.47	33.915	0