onset	duration	trial_type	RT	ExcludeBlock	SearchEvidence	SearchValue	SearchCosts	OfferValue	Choice_isForage	ExcludeBlock	ExpValueLeft	ExpValueRight	Choice_isLeft
6.005268625	2.7	forage	1.325	0	15.27711567	43.66666667	1	11.30561088	1	n/a	n/a	n/a	n/a
15.96930993	2.7	forage	3.822	0	-8.592731251	31	1	30.39687138	0	n/a	n/a	n/a	n/a
24.06103601	2.7	engage	1.598	n/a	n/a	n/a	n/a	n/a	n/a	0	20.4	32.78	0
35.64542851	2.7	forage	1.534	0	-5.600933387	45.66666667	0.5	35.42964388	0	n/a	n/a	n/a	n/a
43.59321059	2.7	engage	1.154	n/a	n/a	n/a	n/a	n/a	n/a	0	44.53	19.765	1
52.4939257	2.7	forage	0.971	0	22.4047387	39.83333333	0.5	6.565944872	1	n/a	n/a	n/a	n/a
62.45540956	2.7	forage	4.517	0	-11.26605234	27.33333333	0.5	33.49049344	0	n/a	n/a	n/a	n/a
70.04154451	2.7	engage	3.121	n/a	n/a	n/a	n/a	n/a	n/a	0	19.175	26.24	0
82.85460923	2.7	forage	1.007	0	11.00891907	45.66666667	2	19.44296062	1	n/a	n/a	n/a	n/a
89.91541952	2.7	forage	2.54	0	0.983391848	39	0.5	26.9843871	0	n/a	n/a	n/a	n/a
96.87325799	2.7	engage	1.151	n/a	n/a	n/a	n/a	n/a	n/a	0	41.76	11	1
108.3708242	2.7	forage	2.271	0	-9.343021142	18.83333333	1	25.19747498	1	n/a	n/a	n/a	n/a
113.4315079	2.7	forage	3.426	0	4.234373858	20.66666667	0.5	13.69060409	0	n/a	n/a	n/a	n/a
120.9217596	2.7	engage	2.207	n/a	n/a	n/a	n/a	n/a	n/a	0	10.5	14.85	0
131.4175547	2.7	forage	3.188	0	-11.77110474	30.66666667	0.5	34.93038077	0	n/a	n/a	n/a	n/a
139.8705688	2.7	engage	2.026	n/a	n/a	n/a	n/a	n/a	n/a	0	47.775	18.04	1
150.3835103	2.7	forage	3.318	0	-15.66510253	25.5	2	33.57146773	0	n/a	n/a	n/a	n/a
160.9693571	2.7	engage	3.177	n/a	n/a	n/a	n/a	n/a	n/a	0	8.505	15.68	0
170.8370163	2.7	forage	1.606	0	-10.8616862	32.83333333	0.5	35.23668327	0	n/a	n/a	n/a	n/a
179.5848721	2.7	engage	0.767	n/a	n/a	n/a	n/a	n/a	n/a	0	52.93	28.8	1
189.4643449	2.7	forage	1.933	0	-12.80388344	27.16666667	2	34.1	1	n/a	n/a	n/a	n/a
196.7330934	2.7	forage	1.453	0	-15.36272656	21.66666667	0.5	32.90740657	0	n/a	n/a	n/a	n/a
204.4839091	2.7	engage	7.414	n/a	n/a	n/a	n/a	n/a	n/a	0	22.75	27.495	0
222.9801713	2.7	forage	2.395	0	-0.291782271	26.33333333	2	20.63635632	0	n/a	n/a	n/a	n/a
229.7317432	2.7	engage	1.024	n/a	n/a	n/a	n/a	n/a	n/a	0	32.375	21.09	1
243.6109343	2.7	forage	3.618	0	-12.42597757	19.33333333	0.5	28.33690961	0	n/a	n/a	n/a	n/a
250.4971898	2.7	engage	2.729	n/a	n/a	n/a	n/a	n/a	n/a	0	16.32	24.64	1
261.3141668	2.7	forage	1.76	0	-17.69614925	24.16666667	2	36.06512751	0	n/a	n/a	n/a	n/a
268.8642374	2.7	engage	0.852	n/a	n/a	n/a	n/a	n/a	n/a	0	48.645	6.6	1
278.7434385	2.7	forage	1.399	0	9.389945844	41.16666667	0.5	18.97811227	1	n/a	n/a	n/a	n/a
285.2411321	2.7	forage	2.051	0	8.839562229	42.5	2	19.38104723	1	n/a	n/a	n/a	n/a
291.307937	2.7	forage	2.1	0	-11.07037691	33	1	34.05407676	0	n/a	n/a	n/a	n/a
298.0609616	2.7	engage	2.132	n/a	n/a	n/a	n/a	n/a	n/a	0	19.095	22.61	0
309.9748816	2.7	forage	1.799	0	-1.570167329	25.5	0.5	19.25	1	n/a	n/a	n/a	n/a
317.0467035	2.7	forage	1.374	0	-3.909222541	21.5	0.5	20.38211861	0	n/a	n/a	n/a	n/a
323.5927013	2.7	engage	1.728	n/a	n/a	n/a	n/a	n/a	n/a	0	17.27	11.2	1
334.8766252	2.7	forage	5.991	0	-12.2431883	29.83333333	1	35.75	0	n/a	n/a	n/a	n/a
344.9246796	2.7	engage	1.269	n/a	n/a	n/a	n/a	n/a	n/a	0	42.9	5.12	1
357.8250432	2.7	forage	1.883	0	-0.303104472	41.16666667	0.5	28.8830919	0	n/a	n/a	n/a	n/a
365.7734105	2.7	engage	0.861	n/a	n/a	n/a	n/a	n/a	n/a	0	47.17	25.74	1
374.8573254	2.7	forage	1.84	0	-4.065105209	31.66666667	1	27.5	1	n/a	n/a	n/a	n/a
381.9170565	2.7	forage	2.584	0	1.427148701	33.33333333	0.5	23.1	1	n/a	n/a	n/a	n/a
387.9892572	2.7	forage	1.654	0	0.086073806	32.83333333	1	24.2	0	n/a	n/a	n/a	n/a
395.7382164	2.7	engage	1.279	n/a	n/a	n/a	n/a	n/a	n/a	0	21.78	2.835	1
404.0181335	2.7	forage	1.182	0	-11.4184087	28.33333333	0.5	32.48355717	0	n/a	n/a	n/a	n/a
412.7705479	2.7	engage	1.158	n/a	n/a	n/a	n/a	n/a	n/a	0	16.96	32.64	0
423.8508896	2.7	forage	0.981	0	26.80272102	52.66666667	2	4.060444646	1	n/a	n/a	n/a	n/a
430.1039114	2.7	forage	1.346	0	-6.734927653	35	0.5	33.11049243	0	n/a	n/a	n/a	n/a
436.0567096	2.7	engage	1.117	n/a	n/a	n/a	n/a	n/a	n/a	0	35.38	31.93	1
446.1325193	2.7	forage	1.938	0	-13.45955116	19	0.5	26.56051003	0	n/a	n/a	n/a	n/a
456.0845496	2.7	engage	1.014	n/a	n/a	n/a	n/a	n/a	n/a	0	9.43	32.24	0
464.7660871	2.7	forage	1.193	0	3.532886173	41	2	24.75	1	n/a	n/a	n/a	n/a
470.8262954	2.7	forage	1.576	0	6.866878594	40.66666667	1	21.85877219	0	n/a	n/a	n/a	n/a
478.3853687	2.7	engage	0.985	n/a	n/a	n/a	n/a	n/a	n/a	0	4.35	33.62	0
488.2807382	2.7	forage	1.216	0	31.51727864	58.66666667	1	2.056254716	1	n/a	n/a	n/a	n/a
495.7481955	2.7	forage	1.459	0	-9.591078584	36.83333333	0.5	37.73014939	0	n/a	n/a	n/a	n/a
504.6982827	2.7	engage	0.935	n/a	n/a	n/a	n/a	n/a	n/a	0	62.3	30.485	1
515.9961471	2.7	forage	0.915	0	13.34627383	48.5	1	15.8387053	1	n/a	n/a	n/a	n/a
521.4590832	2.7	forage	0.185	0	-7.446400416	37.83333333	0.5	32.83990493	1	n/a	n/a	n/a	n/a
527.7204716	2.7	forage	1.512	0	5.91297537	46.5	0.5	22.89085559	1	n/a	n/a	n/a	n/a
534.1652722	2.7	forage	1.162	0	4.550325772	41.16666667	1	23.80187868	0	n/a	n/a	n/a	n/a
541.1126392	2.7	engage	0.83	n/a	n/a	n/a	n/a	n/a	n/a	0	11.7	25.42	0
548.9931782	2.7	forage	5.981	0	-7.074259846	43.33333333	0.5	34.02923394	0	n/a	n/a	n/a	n/a
560.2281301	2.7	engage	0.869	n/a	n/a	n/a	n/a	n/a	n/a	0	8.28	44.8	0
569.3261853	2.7	forage	0.771	0	25.89801653	48.83333333	1	7.455472562	1	n/a	n/a	n/a	n/a
575.792825	2.7	forage	1.245	0	-8.949525342	33	2	35.11802978	0	n/a	n/a	n/a	n/a
582.3438585	2.7	engage	1.733	n/a	n/a	n/a	n/a	n/a	n/a	0	27.6	21.73	1
590.4441632	2.7	forage	3.384	0	-6.855775866	36.5	1	29.43292591	0	n/a	n/a	n/a	n/a
597.0758911	2.7	engage	1.135	n/a	n/a	n/a	n/a	n/a	n/a	0	42.39	45.58	1
608.5572302	2.7	forage	1.082	0	25.58759754	45.33333333	2	5.064669785	1	n/a	n/a	n/a	n/a
615.8232522	2.7	forage	1.505	0	-10.42547256	29.83333333	2	34.42118606	0	n/a	n/a	n/a	n/a
624.574208	2.7	engage	4.051	n/a	n/a	n/a	n/a	n/a	n/a	0	24.14	17.425	0
638.1267763	2.7	forage	1.205	0	18.78067736	49	2	12.65	1	n/a	n/a	n/a	n/a
645.1835899	2.7	forage	1.33	0	-9.776010932	33.16666667	2	34.77136462	0	n/a	n/a	n/a	n/a
650.7393108	2.7	engage	0.984	n/a	n/a	n/a	n/a	n/a	n/a	0	47.25	43.18	1
664.2234857	2.7	forage	2.901	0	2.114743222	35	0.5	21.81899049	0	n/a	n/a	n/a	n/a
670.1714279	2.7	engage	1	n/a	n/a	n/a	n/a	n/a	n/a	0	18.81	31.16	0
680.6520007	2.7	forage	3.058	0	0.923090388	31.5	1	22.75291987	0	n/a	n/a	n/a	n/a
690.7701706	2.7	engage	0.824	n/a	n/a	n/a	n/a	n/a	n/a	0	40.5	11.36	1
702.4529049	2.7	forage	2.701	0	-3.339907114	30	0.5	26.8185378	1	n/a	n/a	n/a	n/a
709.9249735	2.7	forage	0.964	0	12.15664973	34.33333333	2	13.78344651	1	n/a	n/a	n/a	n/a
716.3724715	2.7	forage	1.118	0	7.265584561	34.5	0.5	18.15	1	n/a	n/a	n/a	n/a
721.831843	2.7	forage	0.727	0	-17.11398454	21.16666667	0.5	33.47068558	0	n/a	n/a	n/a	n/a
727.5881065	2.7	engage	0.89	n/a	n/a	n/a	n/a	n/a	n/a	0	40.59	24.745	1
736.4654073	2.7	forage	1.438	0	10.287535	37.33333333	2	18.7	1	n/a	n/a	n/a	n/a
742.9269625	2.7	forage	0.812	0	24.62612343	42.16666667	1	4.843269956	0	n/a	n/a	n/a	n/a
749.483234	2.7	engage	1.115	n/a	n/a	n/a	n/a	n/a	n/a	0	6.84	2.205	1
758.3801732	2.7	forage	1.244	0	-7.547376222	30.5	0.5	30.49762587	0	n/a	n/a	n/a	n/a
766.1334276	2.7	engage	1.685	n/a	n/a	n/a	n/a	n/a	n/a	0	23.1	11.22	1
776.4176864	2.7	forage	1.258	0	8.740345891	48.83333333	2	22.55	1	n/a	n/a	n/a	n/a
785.6728627	2.7	forage	2.105	0	-7.526411985	39.66666667	2	35.43484483	0	n/a	n/a	n/a	n/a
792.2306105	2.7	engage	2.706	n/a	n/a	n/a	n/a	n/a	n/a	0	30.1	47.61	0
801.2332278	2.7	forage	1.026	0	13.32962158	33.16666667	1	9.35	1	n/a	n/a	n/a	n/a
808.6851477	2.7	forage	1.329	0	-14.97622068	22.16666667	0.5	31.37182737	0	n/a	n/a	n/a	n/a
814.6292083	2.7	engage	3.824	n/a	n/a	n/a	n/a	n/a	n/a	0	13.2	7.02	1
830.5444515	2.7	forage	1.01	0	8.123666818	33.5	2	17.05	1	n/a	n/a	n/a	n/a
839.7996661	2.7	forage	1.216	0	-9.193327968	24	0.5	28.92923646	0	n/a	n/a	n/a	n/a
847.7438703	2.7	engage	2.2	n/a	n/a	n/a	n/a	n/a	n/a	0	16.005	27.93	0
859.2348665	2.7	forage	3.006	0	7.322582868	40.33333333	0.5	18.17924149	1	n/a	n/a	n/a	n/a
869.0090807	2.7	forage	1.447	0	-2.583647201	41.16666667	1	26.33526483	0	n/a	n/a	n/a	n/a
875.5588067	2.7	engage	1.552	n/a	n/a	n/a	n/a	n/a	n/a	0	23.28	9.3	0
883.4592489	2.7	forage	2.199	0	-2.593045789	51.5	2	34.31719481	0	n/a	n/a	n/a	n/a
890.4079239	2.7	engage	0.834	n/a	n/a	n/a	n/a	n/a	n/a	0	14.3	49.725	0
898.6889095	2.7	forage	1.272	0	10.38503982	37	0.5	15.89348121	1	n/a	n/a	n/a	n/a
906.1503967	2.7	forage	3.39	0	7.663707728	36.5	0.5	18.32544892	1	n/a	n/a	n/a	n/a
916.5996899	2.7	forage	0.884	0	-14.28179116	25.83333333	2	32.31820582	0	n/a	n/a	n/a	n/a
925.5558342	2.7	engage	0.789	n/a	n/a	n/a	n/a	n/a	n/a	0	14.49	38.505	0
935.0384488	2.7	forage	1.204	0	20.95818604	44.83333333	1	8.8	1	n/a	n/a	n/a	n/a
941.3023163	2.7	forage	1.497	0	-14.96119327	26.83333333	2	35.23707057	0	n/a	n/a	n/a	n/a
947.8566983	2.7	engage	1.147	n/a	n/a	n/a	n/a	n/a	n/a	0	51.9	46.23	1
960.1417823	2.7	forage	0.984	0	28.76130124	60.66666667	1	5.431253458	1	n/a	n/a	n/a	n/a
966.4007538	2.7	forage	1.591	0	0.512018342	43.5	0.5	32.15188622	0	n/a	n/a	n/a	n/a
972.956477	2.7	engage	2.839	n/a	n/a	n/a	n/a	n/a	n/a	0	31.415	31.9	1
984.7836226	2.7	forage	1.137	0	-11.01840987	25.66666667	1	30.83112268	0	n/a	n/a	n/a	n/a
990.7351398	2.7	engage	2.516	n/a	n/a	n/a	n/a	n/a	n/a	0	13.115	22.36	0
1000.539848	2.7	forage	1.14	0	22.69738595	47.16666667	2	4.845261808	1	n/a	n/a	n/a	n/a
1005.797696	2.7	forage	2.553	0	-6.22807337	33.33333333	0.5	31.04773653	0	n/a	n/a	n/a	n/a
1014.551148	2.7	engage	0.883	n/a	n/a	n/a	n/a	n/a	n/a	0	15.86	24.82	0
1023.432833	2.7	forage	2.577	0	-14.97206361	26.66666667	2	36.85	0	n/a	n/a	n/a	n/a
1028.98408	2.7	engage	0.755	n/a	n/a	n/a	n/a	n/a	n/a	0	2.795	57.62	0
1038.264066	2.7	forage	9.192	0	12.83629345	46.83333333	0.5	17.29848348	1	n/a	n/a	n/a	n/a
1053.017163	2.7	forage	1.745	0	-12.75850796	33.33333333	2	35.22636437	0	n/a	n/a	n/a	n/a
1059.764201	2.7	engage	1.016	n/a	n/a	n/a	n/a	n/a	n/a	0	53.625	53.235	1
1071.263778	2.7	forage	1.323	0	-4.105903124	41.16666667	2	34.1862859	0	n/a	n/a	n/a	n/a
1079.812977	2.7	engage	0.949	n/a	n/a	n/a	n/a	n/a	n/a	0	53.79	19.53	1
1089.897509	2.7	forage	4.28	0	-8.964569354	22.33333333	1	26.87923394	0	n/a	n/a	n/a	n/a
1098.428546	2.7	engage	0.772	n/a	n/a	n/a	n/a	n/a	n/a	0	11.78	47.435	0
1108.910175	2.7	forage	1.115	0	28.04272421	45.66666667	1	4.042545647	1	n/a	n/a	n/a	n/a
1116.362036	2.7	forage	3.166	0	4.238339118	35.16666667	1	24.96528595	0	n/a	n/a	n/a	n/a
1122.793674	2.7	engage	2.343	n/a	n/a	n/a	n/a	n/a	n/a	0	20.09	15.255	0
1132.426358	2.7	forage	5.336	0	-5.802438677	37	0.5	31.85344047	0	n/a	n/a	n/a	n/a
1145.825594	2.7	engage	0.856	n/a	n/a	n/a	n/a	n/a	n/a	0	10.92	54.495	0
1155.710431	2.7	forage	1.207	0	-2.871289003	41.5	1	29.84886324	0	n/a	n/a	n/a	n/a
1161.262257	2.7	engage	1.975	n/a	n/a	n/a	n/a	n/a	n/a	0	18.54	35.4	0
1176.527444	2.7	forage	1.014	0	-5.187994903	34.5	0.5	30.32046175	0	n/a	n/a	n/a	n/a
1182.073445	2.7	engage	1.847	n/a	n/a	n/a	n/a	n/a	n/a	0	13.44	30.6	0
1197.604686	2.7	forage	0.995	0	27.82592224	47.16666667	0.5	3.084382073	1	n/a	n/a	n/a	n/a
1205.064213	2.7	forage	1.235	0	-9.974296062	28.66666667	2	33.6555128	0	n/a	n/a	n/a	n/a
1213.03815	2.7	engage	1.139	n/a	n/a	n/a	n/a	n/a	n/a	0	42.9	44.525	1
1220.922278	2.7	forage	1.936	0	-9.839576815	34.16666667	0.5	34.87026558	0	n/a	n/a	n/a	n/a
1229.487112	2.7	engage	2.002	n/a	n/a	n/a	n/a	n/a	n/a	0	19.6	40.46	0
1239.789631	2.7	forage	2.806	0	-4.902949885	34.33333333	0.5	29.47663598	0	n/a	n/a	n/a	n/a
1248.852712	2.7	engage	0.99	n/a	n/a	n/a	n/a	n/a	n/a	0	21.34	34.51	0
1259.934326	2.7	forage	7.481	0	-8.392249551	39.66666667	2	35.7361677	0	n/a	n/a	n/a	n/a
1271.267994	2.7	engage	1.855	n/a	n/a	n/a	n/a	n/a	n/a	0	10.875	45.825	0
1282.02035	2.7	forage	0.786	0	-10.34437285	35.5	2	35.78242292	0	n/a	n/a	n/a	n/a
1288.983551	2.7	engage	1.378	n/a	n/a	n/a	n/a	n/a	n/a	0	25.01	38.08	0
1298.468806	2.7	forage	1.118	0	11.99580035	29.33333333	1	10.74634324	1	n/a	n/a	n/a	n/a
1304.530984	2.7	forage	4.66	0	14.71367805	30.83333333	0.5	8.356149087	1	n/a	n/a	n/a	n/a
1313.549252	2.7	forage	0.971	0	-17.7222296	20.5	1	32.70954932	0	n/a	n/a	n/a	n/a
1320.498281	2.7	engage	0.766	n/a	n/a	n/a	n/a	n/a	n/a	0	42.21	13.195	1
1328.780468	2.7	forage	1.75	0	13.01497728	24.5	2	4.843269956	1	n/a	n/a	n/a	n/a
1335.048311	2.7	forage	2.498	0	-9.151002968	14	0.5	20.72322318	0	n/a	n/a	n/a	n/a
1343.79681	2.7	engage	1.962	n/a	n/a	n/a	n/a	n/a	n/a	0	33.345	18.9	1
1355.450092	2.7	forage	1.051	0	15.91581393	50.5	1	15.95	1	n/a	n/a	n/a	n/a
1363.511698	2.7	forage	6.347	0	2.901319853	44.16666667	2	28.03647201	1	n/a	n/a	n/a	n/a
1372.611142	2.7	forage	1.151	0	-11.33748051	34	2	36.35848297	0	n/a	n/a	n/a	n/a
1381.561257	2.7	engage	0.631	n/a	n/a	n/a	n/a	n/a	n/a	0	54.95	26.4	1
1396.243873	2.7	forage	0.893	0	29.19035344	55.66666667	0.5	3.084382073	1	n/a	n/a	n/a	n/a
1404.499669	2.7	forage	4.47	0	-10.37622219	35	1	36.87215935	0	n/a	n/a	n/a	n/a
1413.82592	2.7	engage	0.943	n/a	n/a	n/a	n/a	n/a	n/a	0	53.55	48.825	1
1422.708988	2.7	forage	35.115	0	-14.47380564	24.83333333	1	32.40070167	0	n/a	n/a	n/a	n/a
1461.689617	2.7	engage	1.017	n/a	n/a	n/a	n/a	n/a	n/a	0	15.525	41.54	0
1470.972388	2.7	forage	1.462	0	-2.698381537	31.33333333	0.5	27.5	1	n/a	n/a	n/a	n/a
1477.227284	2.7	forage	0.941	0	-12.73123803	25.33333333	0.5	33.73408028	0	n/a	n/a	n/a	n/a
1486.17587	2.7	engage	1.294	n/a	n/a	n/a	n/a	n/a	n/a	0	15.275	26.4	0
1497.057194	2.7	forage	0.993	0	12.00704877	39.16666667	0.5	15.19843569	1	n/a	n/a	n/a	n/a
1503.310105	2.7	forage	1.267	0	-5.195488322	32.5	2	28.28086112	0	n/a	n/a	n/a	n/a
1510.053341	2.7	engage	1.364	n/a	n/a	n/a	n/a	n/a	n/a	0	23.4	17.64	1
1521.737521	2.7	forage	0.778	0	7.88118656	48.66666667	0.5	22.01444092	1	n/a	n/a	n/a	n/a
1528.990988	2.7	forage	1.095	0	-11.62433664	36.5	0.5	35.22636437	0	n/a	n/a	n/a	n/a
1536.735284	2.7	engage	1.486	n/a	n/a	n/a	n/a	n/a	n/a	0	42.25	50.715	0
1545.838432	2.7	forage	1.006	0	8.894697785	40.5	2	14.39378301	1	n/a	n/a	n/a	n/a
1553.094545	2.7	forage	1.797	0	-5.570576094	32	1	25.6555455	0	n/a	n/a	n/a	n/a
1559.850253	2.7	engage	0.734	n/a	n/a	n/a	n/a	n/a	n/a	0	18.225	41.76	0
1569.954106	2.7	forage	0.885	0	6.517642473	43	0.5	20.39495498	1	n/a	n/a	n/a	n/a
1575.21384	2.7	forage	4.114	0	-1.350215281	41.16666667	2	26.82675419	0	n/a	n/a	n/a	n/a
1585.581973	2.7	engage	2.883	n/a	n/a	n/a	n/a	n/a	n/a	0	18.815	13.92	0
1598.551975	2.7	forage	1.119	0	9.497048438	44.5	1	18.88266938	1	n/a	n/a	n/a	n/a
1604.01293	2.7	forage	1.772	0	3.919257415	42.66666667	2	23.77689754	0	n/a	n/a	n/a	n/a
1610.763782	2.7	engage	1.542	n/a	n/a	n/a	n/a	n/a	n/a	0	17.94	10.01	1