onset	duration	trial_type	RT	ExcludeBlock	SearchEvidence	SearchValue	SearchCosts	OfferValue	Choice_isForage	ExcludeBlock	ExpValueLeft	ExpValueRight	Choice_isLeft
6.005326686	2.7	forage	6.948	0	30.9241901	59.83333333	0.5	3.029716815	1	n/a	n/a	n/a	n/a
17.52376314	2.7	forage	1.534	0	-0.441770535	42	0.5	32.35004778	0	n/a	n/a	n/a	n/a
24.49827071	2.7	engage	1.433	n/a	n/a	n/a	n/a	n/a	n/a	0	32.48	31.415	1
34.18159498	2.7	forage	9.655	0	18.12525678	33.83333333	1	8.25	1	n/a	n/a	n/a	n/a
48.19767042	2.7	forage	1.578	0	1.560005198	27.83333333	0.5	22.30610885	1	n/a	n/a	n/a	n/a
53.46958169	2.7	forage	0.94	0	-17.97968747	25	0.5	37.4	0	n/a	n/a	n/a	n/a
61.01747616	2.7	engage	1.438	n/a	n/a	n/a	n/a	n/a	n/a	0	1.14	39.78	0
69.29730778	2.7	forage	2.371	0	23.81003051	46.5	2	6.893051154	1	n/a	n/a	n/a	n/a
75.55755635	2.7	forage	4.026	0	-6.884106266	38	1	34.65	0	n/a	n/a	n/a	n/a
82.44466733	2.7	engage	1.093	n/a	n/a	n/a	n/a	n/a	n/a	0	19.215	5.16	0
92.52728065	2.7	forage	8.436	0	-10.1175526	41.5	1	36.87536844	0	n/a	n/a	n/a	n/a
104.8266199	2.7	engage	1.921	n/a	n/a	n/a	n/a	n/a	n/a	0	50.16	53.72	0
118.2470712	2.7	forage	1.673	0	31.73605955	61.66666667	2	3.088199789	1	n/a	n/a	n/a	n/a
124.7028918	2.7	forage	1.022	0	-5.799135523	41	2	36.87215935	0	n/a	n/a	n/a	n/a
132.2582151	2.7	engage	1.145	n/a	n/a	n/a	n/a	n/a	n/a	0	14	54.81	0
142.5425734	2.7	forage	1.276	0	31.73043257	59.16666667	2	1.514858408	1	n/a	n/a	n/a	n/a
149.6031398	2.7	forage	1.419	0	-1.081591972	40.5	2	32.18209597	0	n/a	n/a	n/a	n/a
157.3733636	2.7	engage	2.382	n/a	n/a	n/a	n/a	n/a	n/a	0	22.42	19.43	1
167.241958	2.7	forage	2.252	0	29.74525376	54.5	0.5	2.030222323	1	n/a	n/a	n/a	n/a
172.5042869	2.7	forage	0.831	0	1.97414617	39	0.5	28.26976762	0	n/a	n/a	n/a	n/a
180.4553655	2.7	engage	1.472	n/a	n/a	n/a	n/a	n/a	n/a	0	25.575	15.525	1
192.1430264	2.7	forage	1.953	0	-9.391472931	33	1	34.30208994	0	n/a	n/a	n/a	n/a
200.0881491	2.7	engage	0.754	n/a	n/a	n/a	n/a	n/a	n/a	0	47.775	7.28	1
209.5915978	2.7	forage	2.79	0	-6.229161511	28	2	28.87894221	0	n/a	n/a	n/a	n/a
217.2364321	2.7	engage	0.774	n/a	n/a	n/a	n/a	n/a	n/a	0	45.1	19.11	1
228.3193625	2.7	forage	1.468	0	27.6845432	58.5	2	5.609579498	1	n/a	n/a	n/a	n/a
233.388235	2.7	forage	1.077	0	-3.965022048	42	0.5	34.83994517	0	n/a	n/a	n/a	n/a
240.1364158	2.7	engage	1.019	n/a	n/a	n/a	n/a	n/a	n/a	0	27.965	56.925	0
248.0362143	2.7	forage	8.712	0	-12.78974129	31.66666667	2	35.34916755	0	n/a	n/a	n/a	n/a
262.0003057	2.7	engage	1.407	n/a	n/a	n/a	n/a	n/a	n/a	0	43.05	18.48	1
272.2833211	2.7	forage	4.615	0	-9.052035612	24.5	0.5	27.80881998	0	n/a	n/a	n/a	n/a
280.7492753	2.7	engage	3.052	n/a	n/a	n/a	n/a	n/a	n/a	0	9.01	24.475	0
292.5028241	2.7	forage	4.927	0	6.774115487	36.66666667	1	19.7297319	1	n/a	n/a	n/a	n/a
303.7819774	2.7	forage	8.803	0	11.89962343	42.83333333	1	14.85	1	n/a	n/a	n/a	n/a
314.9535823	2.7	forage	1.485	0	-12.12079825	30.33333333	1	33.44741965	0	n/a	n/a	n/a	n/a
321.9133021	2.7	engage	1.249	n/a	n/a	n/a	n/a	n/a	n/a	0	46.53	26.52	1
335.2005767	2.7	forage	1.662	0	15.96445383	41	0.5	11.73485489	1	n/a	n/a	n/a	n/a
341.2511447	2.7	forage	1.493	0	-8.854698456	31	1	31.32770233	0	n/a	n/a	n/a	n/a
346.9982206	2.7	engage	0.982	n/a	n/a	n/a	n/a	n/a	n/a	0	29.445	15.5	1
354.6778832	2.7	forage	5.019	0	-5.667577419	41.33333333	0.5	34.1	1	n/a	n/a	n/a	n/a
363.2610227	2.7	forage	1.132	0	-2.542937813	35.16666667	0.5	29.61581661	0	n/a	n/a	n/a	n/a
371.2269089	2.7	engage	1.127	n/a	n/a	n/a	n/a	n/a	n/a	0	17.085	33.04	0
382.1104714	2.7	forage	2.108	0	6.190932716	38.16666667	0.5	21.81105075	1	n/a	n/a	n/a	n/a
388.1724471	2.7	forage	1.131	0	-11.82701306	31.5	1	34.34591067	0	n/a	n/a	n/a	n/a
394.9255083	2.7	engage	1.323	n/a	n/a	n/a	n/a	n/a	n/a	0	12.22	42.5	0
405.2091586	2.7	forage	19.204	0	27.28494274	49.66666667	1	4.390040742	1	n/a	n/a	n/a	n/a
427.7768924	2.7	forage	1.003	0	-2.275186862	34	2	30.00301041	0	n/a	n/a	n/a	n/a
436.7395634	2.7	engage	0.807	n/a	n/a	n/a	n/a	n/a	n/a	0	46.905	24.525	1
446.4222235	2.7	forage	1.701	0	-12.42865734	34.66666667	0.5	36.85	0	n/a	n/a	n/a	n/a
452.3885962	2.7	engage	12.357	n/a	n/a	n/a	n/a	n/a	n/a	0	35.51	4.425	1
476.0389816	2.7	forage	1.583	0	-11.38685998	30.16666667	1	33.27351994	0	n/a	n/a	n/a	n/a
481.9868227	2.7	engage	1.896	n/a	n/a	n/a	n/a	n/a	n/a	0	22.75	36.66	0
491.1746734	2.7	forage	1.489	0	-4.132787586	50.66666667	1	35.2	1	n/a	n/a	n/a	n/a
498.4311849	2.7	forage	0.927	0	-7.889567091	41.83333333	0.5	36.21006237	0	n/a	n/a	n/a	n/a
506.3883402	2.7	engage	2.448	n/a	n/a	n/a	n/a	n/a	n/a	0	45.43	40.6	1
517.3195943	2.7	forage	2.941	0	-14.29125245	32.33333333	0.5	35.4320507	0	n/a	n/a	n/a	n/a
524.1175641	2.7	engage	2.197	n/a	n/a	n/a	n/a	n/a	n/a	0	19.38	43.955	0
535.8052261	2.7	forage	5.563	0	20.93486662	47.16666667	1	9.098030783	1	n/a	n/a	n/a	n/a
545.1353864	2.7	forage	0.93	0	7.181692571	38	2	21.8162517	1	n/a	n/a	n/a	n/a
551.4039011	2.7	forage	1.874	0	-0.824467917	39.16666667	0.5	29.2117474	1	n/a	n/a	n/a	n/a
557.8621221	2.7	forage	2.665	0	-5.035491005	33.83333333	2	30.80675016	0	n/a	n/a	n/a	n/a
565.4150202	2.7	engage	4.435	n/a	n/a	n/a	n/a	n/a	n/a	0	22.57	35.91	0
577.1507283	2.7	forage	1.424	0	-2.595821471	35.16666667	2	28.99505055	1	n/a	n/a	n/a	n/a
582.4119634	2.7	forage	0.934	0	-1.648515333	39.33333333	1	29.15	1	n/a	n/a	n/a	n/a
590.8852168	2.7	forage	1.835	0	-10.03236775	31.33333333	2	33.34265379	0	n/a	n/a	n/a	n/a
597.6464475	2.7	engage	1.253	n/a	n/a	n/a	n/a	n/a	n/a	0	53.79	39.1	1
608.7535768	2.7	forage	2.24	0	28.64080898	55	2	3.095973543	0	n/a	n/a	n/a	n/a
616.7118594	2.7	engage	4.379	n/a	n/a	n/a	n/a	n/a	n/a	0	2.725	3.12	0
631.5719526	2.7	forage	1.21	0	27.55046577	39	1	1.514305115	1	n/a	n/a	n/a	n/a
636.8384606	2.7	forage	1.566	0	-14.91007277	25.66666667	2	37.30829184	0	n/a	n/a	n/a	n/a
644.7934991	2.7	engage	1.722	n/a	n/a	n/a	n/a	n/a	n/a	0	18.36	14.535	0
655.7812046	2.7	forage	4.673	0	-13.17130074	25.66666667	0.5	32.58494794	0	n/a	n/a	n/a	n/a
664.5090015	2.7	engage	1.084	n/a	n/a	n/a	n/a	n/a	n/a	0	27	12.915	1
673.6130879	2.7	forage	6.282	0	-14.58815083	30.33333333	0.5	37.68856949	0	n/a	n/a	n/a	n/a
686.7408838	2.7	engage	5.726	n/a	n/a	n/a	n/a	n/a	n/a	0	12.825	43.47	0
701.759603	2.7	forage	12.599	0	24.36959694	50.83333333	2	7.06924702	1	n/a	n/a	n/a	n/a
717.9279181	2.7	forage	0.809	0	-11.5332832	33.16666667	0.5	35.78222926	0	n/a	n/a	n/a	n/a
723.4750771	2.7	engage	1.329	n/a	n/a	n/a	n/a	n/a	n/a	0	25.84	19.215	1
735.6599672	2.7	forage	1.444	0	-9.853458914	35.83333333	0.5	35.23707057	0	n/a	n/a	n/a	n/a
743.407823	2.7	engage	8.806	n/a	n/a	n/a	n/a	n/a	n/a	0	24	50.92	0
761.1064708	2.7	forage	8.579	0	-11.88007746	33.16666667	1	34.67489814	0	n/a	n/a	n/a	n/a
772.9356131	2.7	engage	1.971	n/a	n/a	n/a	n/a	n/a	n/a	0	22.79	36.38	0
782.2070932	2.7	forage	2.937	0	-3.765405328	35.5	1	31.46591469	0	n/a	n/a	n/a	n/a
789.0013432	2.7	engage	12.122	n/a	n/a	n/a	n/a	n/a	n/a	0	25.075	14.575	1
808.6250825	2.7	forage	19.995	0	10.8935134	43	2	15.89223631	1	n/a	n/a	n/a	n/a
831.9880192	2.7	forage	0.916	0	-10.57557517	35.16666667	2	32.3802852	0	n/a	n/a	n/a	n/a
838.5315645	2.7	engage	1.23	n/a	n/a	n/a	n/a	n/a	n/a	0	26.52	25.6	1
850.2173456	2.7	forage	11.316	0	-14.75442801	25.16666667	2	34.65	1	n/a	n/a	n/a	n/a
866.3027175	2.7	forage	10.944	0	-1.766082524	30.16666667	0.5	24.75	1	n/a	n/a	n/a	n/a
881.9996319	2.7	forage	0.953	0	-14.75387841	25.16666667	0.5	34.65	0	n/a	n/a	n/a	n/a
888.5459274	2.7	engage	0.784	n/a	n/a	n/a	n/a	n/a	n/a	0	54.81	2.87	1
899.4391886	2.7	forage	7.837	0	-9.807054306	18	1	22.29827976	1	n/a	n/a	n/a	n/a
910.0540997	2.7	forage	2.022	0	-1.788535117	23.16666667	2	17.6	0	n/a	n/a	n/a	n/a
917.6101287	2.7	engage	15.354	n/a	n/a	n/a	n/a	n/a	n/a	0	3.255	6.72	1
941.4618143	2.7	forage	25.235	0	24.65888386	47.66666667	2	3.028610231	0	n/a	n/a	n/a	n/a
969.7568237	2.7	engage	4.213	n/a	n/a	n/a	n/a	n/a	n/a	0	1.89	0.96	1
985.2622428	2.7	forage	13.204	0	23.86682226	43.66666667	2	5.5	1	n/a	n/a	n/a	n/a
1001.830204	2.7	forage	0.756	0	8.552466341	35.33333333	0.5	19.76843469	1	n/a	n/a	n/a	n/a
1008.304558	2.7	forage	0.761	0	23.86671713	43.66666667	2	5.5	1	n/a	n/a	n/a	n/a
1013.36122	2.7	forage	0.726	0	-3.019274349	33.5	0.5	29.65119964	0	n/a	n/a	n/a	n/a
1020.903789	2.7	engage	6.449	n/a	n/a	n/a	n/a	n/a	n/a	0	23.375	15.39	1
1035.4385	2.7	forage	33.293	0	-5.556326979	46.83333333	2	33.40434586	1	n/a	n/a	n/a	n/a
1071.088437	2.7	forage	2.558	0	-2.760733867	45.16666667	2	31.23165082	0	n/a	n/a	n/a	n/a
1076.837675	2.7	engage	0.793	n/a	n/a	n/a	n/a	n/a	n/a	0	26.7	7.155	1
1087.322274	2.7	forage	2.687	0	-10.3682972	28	1	33.03543836	0	n/a	n/a	n/a	n/a
1094.066072	2.7	engage	10.847	n/a	n/a	n/a	n/a	n/a	n/a	0	18.29	44.16	0
1112.404877	2.7	forage	1.548	0	-4.022446389	30.5	0.5	26.8185378	1	n/a	n/a	n/a	n/a
1120.47154	2.7	forage	0.946	0	12.90638633	36	1	12.59826719	1	n/a	n/a	n/a	n/a
1128.722269	2.7	forage	17.151	0	-2.93798652	28.16666667	0.5	24.96528595	1	n/a	n/a	n/a	n/a
1150.251277	2.7	forage	0.854	0	-19.65586557	27	2	38.5	0	n/a	n/a	n/a	n/a
1157.995511	2.7	engage	3.07	n/a	n/a	n/a	n/a	n/a	n/a	0	4.55	28	0
1169.562767	2.7	forage	99.944	0	3.094252804	29.33333333	2	20.24869222	1	n/a	n/a	n/a	n/a
1273.876466	2.7	forage	0.828	0	21.08935868	38.5	0.5	4.060444646	1	n/a	n/a	n/a	n/a
1280.132987	2.7	forage	0.938	0	-17.89171588	23.83333333	0.5	35.66833409	0	n/a	n/a	n/a	n/a
1288.087333	2.7	engage	1.419	n/a	n/a	n/a	n/a	n/a	n/a	0	26.895	23.46	1
1299.192994	2.7	forage	1.296	0	31.07917274	58.66666667	2	2.531338967	1	n/a	n/a	n/a	n/a
1307.442303	2.7	forage	0.741	0	-0.609665174	40.66666667	0.5	31.92902017	0	n/a	n/a	n/a	n/a
1314.185672	2.7	engage	31.056	n/a	n/a	n/a	n/a	n/a	n/a	0	15.675	22.125	0
1353.739648	2.7	forage	29.134	0	3.634415271	29	2	16.70690358	0	n/a	n/a	n/a	n/a
1386.131285	2.7	engage	1.214	n/a	n/a	n/a	n/a	n/a	n/a	0	14.355	7.92	1
1396.623194	2.7	forage	1.14	0	-7.640598561	33.83333333	0.5	33.15940345	0	n/a	n/a	n/a	n/a
1406.380403	2.7	engage	0.837	n/a	n/a	n/a	n/a	n/a	n/a	0	49.91	8.14	1
1415.485765	2.7	forage	3.1	0	30.43112201	58.83333333	0.5	2.639784216	1	n/a	n/a	n/a	n/a
1421.149051	2.7	forage	4.84	0	-5.458761296	38.83333333	0.5	34.98446507	1	n/a	n/a	n/a	n/a
1430.352259	2.7	forage	17.504	0	1.789674899	49.66666667	2	31.35	1	n/a	n/a	n/a	n/a
1451.219501	2.7	forage	0.847	0	-3.920559496	40.33333333	1	34.45654142	0	n/a	n/a	n/a	n/a
1458.776775	2.7	engage	1.217	n/a	n/a	n/a	n/a	n/a	n/a	0	28.56	12	1
1467.261236	2.7	forage	45.878	0	3.904438409	37.5	0.5	22.08152759	1	n/a	n/a	n/a	n/a
1516.709502	2.7	forage	0.719	0	13.03834834	42.33333333	0.5	14.64633318	1	n/a	n/a	n/a	n/a
1525.977348	2.7	forage	1.302	0	-14.15386449	34.33333333	1	36.35864896	0	n/a	n/a	n/a	n/a
1531.938945	2.7	engage	48.121	n/a	n/a	n/a	n/a	n/a	n/a	0	20.02	23.805	1
1588.157267	2.7	forage	1.795	0	-6.242689503	34.33333333	2	33.61108345	0	n/a	n/a	n/a	n/a
1593.902392	2.7	engage	0.696	n/a	n/a	n/a	n/a	n/a	n/a	0	11.625	53.95	0
1604.987583	2.7	forage	68.227	0	26.31880807	42.16666667	1	3.028610231	1	n/a	n/a	n/a	n/a
1675.783947	2.7	forage	1.158	0	-9.158697416	29.16666667	0.5	33.28231729	0	n/a	n/a	n/a	n/a
1683.733264	2.7	engage	56.552	n/a	n/a	n/a	n/a	n/a	n/a	0	9.75	14.175	1
1749.180521	2.7	forage	1.218	0	28.42070939	52.16666667	2	5.5	1	n/a	n/a	n/a	n/a
1756.447166	2.7	forage	0.993	0	0.935367939	37.16666667	0.5	29.47663598	0	n/a	n/a	n/a	n/a
1762.194977	2.7	engage	0.882	n/a	n/a	n/a	n/a	n/a	n/a	0	49.88	10.78	1
1771.083312	2.7	forage	3.255	0	23.71924266	48.33333333	2	9.989550324	1	n/a	n/a	n/a	n/a
1779.109433	2.7	forage	11.587	0	-7.588950589	34.16666667	1	34.67406821	0	n/a	n/a	n/a	n/a
1795.756035	2.7	engage	1.611	n/a	n/a	n/a	n/a	n/a	n/a	0	58.82	14.31	1
1805.843132	2.7	forage	28.187	0	30.72187147	54.5	1	3.088199789	1	n/a	n/a	n/a	n/a
1839.79279	2.7	forage	1.057	0	1.934997066	43.16666667	2	30.5219154	0	n/a	n/a	n/a	n/a
1846.540913	2.7	engage	1.233	n/a	n/a	n/a	n/a	n/a	n/a	0	13.2	12.255	1
1855.424539	2.7	forage	1.119	0	0.976938618	42.33333333	1	26.95	1	n/a	n/a	n/a	n/a
1860.885619	2.7	forage	0.838	0	-10.26296145	32	1	33.28143202	0	n/a	n/a	n/a	n/a
1868.434981	2.7	engage	30.049	n/a	n/a	n/a	n/a	n/a	n/a	0	23.92	47.125	0
1908.771755	2.7	forage	1.71	0	0.609406971	47.83333333	1	29.15	1	n/a	n/a	n/a	n/a
1916.229374	2.7	forage	19.62	0	-0.997299767	43.5	0.5	30.52553946	0	n/a	n/a	n/a	n/a
1938.713919	2.7	engage	2.321	n/a	n/a	n/a	n/a	n/a	n/a	0	10.64	20.06	0
1948.936603	2.7	forage	1.522	0	-3.3588795	52.33333333	0.5	33.18798099	1	n/a	n/a	n/a	n/a
1955.996255	2.7	forage	2.245	0	3.212384354	53.16666667	1	27.84981892	1	n/a	n/a	n/a	n/a
1962.258964	2.7	forage	0.94	0	5.09488691	54.5	0.5	26.25038982	1	n/a	n/a	n/a	n/a
1971.527683	2.7	forage	1.066	0	1.15372835	51.33333333	2	29.27421407	0	n/a	n/a	n/a	n/a
1980.078104	2.7	engage	1.131	n/a	n/a	n/a	n/a	n/a	n/a	0	19.89	14.575	1
1989.165372	2.7	forage	1.267	0	4.623463608	37.83333333	0.5	20.1943866	1	n/a	n/a	n/a	n/a
1996.432254	2.7	forage	7.142	0	-8.849176601	32.83333333	0.5	29.81406116	0	n/a	n/a	n/a	n/a
2010.626231	2.7	engage	0.501	n/a	n/a	n/a	n/a	n/a	n/a	0	23.895	9.805	1
2023.929365	2.7	forage	3.517	0	3.430510538	37	0.5	21.42457623	1	n/a	n/a	n/a	n/a
2032.01562	2.7	forage	0.835	0	-12.69802022	29.5	0.5	32.62791107	1	n/a	n/a	n/a	n/a
2037.29497	2.7	forage	0.866	0	4.138102879	36.33333333	0.5	20.82110055	1	n/a	n/a	n/a	n/a
2042.760809	2.7	forage	21.185	0	-14.2650928	33	0.5	35.2	0	n/a	n/a	n/a	n/a
2067.006043	2.7	engage	1.03	n/a	n/a	n/a	n/a	n/a	n/a	0	37.76	8.89	1
2080.091988	2.7	forage	3.536	0	21.09878309	33.66666667	1	4.581396811	1	n/a	n/a	n/a	n/a
2088.992579	2.7	forage	1.403	0	-19.75305501	22.83333333	1	37.95	0	n/a	n/a	n/a	n/a
2094.538362	2.7	engage	9.463	n/a	n/a	n/a	n/a	n/a	n/a	0	31.74	5.9	1
2111.693233	2.7	forage	3.332	0	-13.87462351	22.66666667	2	32.4419496	0	n/a	n/a	n/a	n/a
2119.269498	2.7	engage	0.853	n/a	n/a	n/a	n/a	n/a	n/a	0	32.1	6.935	1
2127.577378	2.7	forage	0.626	0	-7.948677129	30.5	2	32.00133545	0	n/a	n/a	n/a	n/a
2134.13768	2.7	engage	5.058	n/a	n/a	n/a	n/a	n/a	n/a	0	12.915	15.12	1
2147.087718	2.7	forage	1.485	0	6.387436246	42.83333333	2	23.15364167	1	n/a	n/a	n/a	n/a
2154.554819	2.7	forage	1.148	0	-1.199015308	44.5	0.5	29.79796036	0	n/a	n/a	n/a	n/a
2161.100204	2.7	engage	11.222	n/a	n/a	n/a	n/a	n/a	n/a	0	46.75	14.195	1
2179.623319	2.7	forage	2.219	0	2.615496538	39.33333333	0.5	22	1	n/a	n/a	n/a	n/a
2186.699643	2.7	forage	0.91	0	-10.70849253	29.66666667	0.5	30.53015945	0	n/a	n/a	n/a	n/a
2192.648297	2.7	engage	1.481	n/a	n/a	n/a	n/a	n/a	n/a	0	22.08	30.9	0
2200.533583	2.7	forage	1.502	0	-13.78155978	24	2	32.15733615	0	n/a	n/a	n/a	n/a
2207.49736	2.7	engage	0.648	n/a	n/a	n/a	n/a	n/a	n/a	0	14.62	34.02	0
2216.774132	2.7	forage	4.126	0	3.613843871	35	2	23.22360545	0	n/a	n/a	n/a	n/a
2223.763051	2.7	engage	0.647	n/a	n/a	n/a	n/a	n/a	n/a	0	39.33	17.85	1
2234.249007	2.7	forage	3.06	0	16.42470617	44.33333333	0.5	12.11444092	1	n/a	n/a	n/a	n/a
2239.665956	2.7	forage	11.64	0	-3.43521352	34.33333333	1	28.00471304	0	n/a	n/a	n/a	n/a
2255.161106	2.7	engage	0.906	n/a	n/a	n/a	n/a	n/a	n/a	0	24.15	32.4	0
2265.447571	2.7	forage	4.326	0	-3.916745469	37.66666667	2	30.97777275	0	n/a	n/a	n/a	n/a
2272.82673	2.7	engage	11.157	n/a	n/a	n/a	n/a	n/a	n/a	0	19.43	34.8	0
2291.877693	2.7	forage	4.976	0	17.11878896	32.33333333	0.5	6.460349077	1	n/a	n/a	n/a	n/a
2303.221258	2.7	forage	0.843	0	-11.27023708	24.33333333	0.5	30.25	0	n/a	n/a	n/a	n/a
2310.178634	2.7	engage	4.364	n/a	n/a	n/a	n/a	n/a	n/a	0	49.225	4.77	1
2325.831155	2.7	forage	22.587	0	-6.523546099	35.16666667	1	32.85326694	0	n/a	n/a	n/a	n/a
2352.488539	2.7	engage	0.803	n/a	n/a	n/a	n/a	n/a	n/a	0	44.48	35.1	1
2361.192789	2.7	forage	54.429	0	0.972903274	31.16666667	0.5	24.36875409	0	n/a	n/a	n/a	n/a
2419.684393	2.7	engage	33.702	n/a	n/a	n/a	n/a	n/a	n/a	0	32.6	15.98	1